onset	duration	trial_type	value	sample	stimulus	is_word	response	correct
56.543	0.0	1Suff RealStemNW	15	56543	fortunion	0.0	1.0	False
58.119	0.0	2Suff PseudoStemNW	24	58119	seetably	0.0	1.0	False
59.819	0.0	1Suff RealStemNW	15	59819	exceptate	0.0	1.0	False
61.536	0.0	2Suff PseudoStemNW	24	61536	cheherably	0.0	1.0	False
63.329	0.0	2Suff RealStemNW	25	63329	loneionist	0.0	1.0	False
65.313	0.0	1Suff RealStemNW	15	65313	flexless	0.0	0.0	True
66.396	0.0	0Suff w/o Lat.	2	66396	master	1.0	0.0	False
67.947	0.0	1Suff RealStemNW	15	67947	justant	0.0	1.0	False
69.447	0.0	2Suff RealStemNW	25	69447	commerceional	0.0		False
71.848	0.0	2Suff RealStemNW	25	71848	vulgarilessly	0.0	1.0	False
73.482	0.0	2Suff w/o Lat.	22	73482	personality	1.0	0.0	False
74.657	0.0	1Suff w/ Lat.	11	74657	inspiration	1.0	0.0	False
75.924	0.0	1Suff PseudoStemNW	14	75924	allendive	0.0	1.0	False
77.083	0.0	2Suff w/o Lat.	22	77083	momentarily	1.0	0.0	False
79.192	0.0	0Suff w/o Lat.	2	79192	own	1.0	0.0	False
80.234	0.0	2Suff RealStemNW	25	80234	selfiveness	0.0	1.0	False
81.618	0.0	0Suff NW	4	81618	moolure	0.0	1.0	False
82.86	0.0	2Suff PseudoStemNW	24	82860	selvuality	0.0	1.0	False
84.002	0.0	0Suff w/o Lat.	2	84002	measure	1.0	0.0	False
85.144	0.0	1Suff RealStemNW	15	85144	merciable	0.0	1.0	False
86.994	0.0	0Suff w/o Lat.	2	86994	second	1.0	0.0	False
88.995	0.0	1Suff PseudoStemNW	14	88995	brukal	0.0	1.0	False
90.095	0.0	2Suff w/o Lat.	22	90095	nationalism	1.0	0.0	False
91.096	0.0	2Suff w/o Lat.	22	91096	continuously	1.0	0.0	False
92.104	0.0	2Suff PseudoStemNW	24	92104	murpifully	0.0	1.0	False
93.28	0.0	0Suff w/o Lat.	2	93280	love	1.0	0.0	False
94.297	0.0	0Suff w/ Lat.	1	94297	provide	1.0	0.0	False
95.18	0.0	2Suff w/o Lat.	22	95180	mercifully	1.0	0.0	False
96.197	0.0	1Suff PseudoStemNW	14	96197	selvible	0.0	1.0	False
97.206	0.0	2Suff w/o Lat.	22	97206	magically	1.0	0.0	False
98.331	0.0	2Suff RealStemNW	25	98331	fruitiously	0.0	0.0	True
100.682	0.0	2Suff RealStemNW	25	100682	excellalism	0.0	1.0	False
102.232	0.0	0Suff NW	4	102232	mocond	0.0	1.0	False
103.75	0.0	0Suff w/o Lat.	2	103750	act	1.0	0.0	False
104.883	0.0	1Suff w/o Lat.	12	104883	noisy	1.0	0.0	False
106.109	0.0	2Suff Composite	23	106109	sensation	1.0	0.0	False
107.159	0.0	2Suff PseudoStemNW	24	107159	cutfurally	0.0	1.0	False
108.243	0.0	1Suff PseudoStemNW	14	108243	moolurable	0.0	1.0	False
109.335	0.0	1Suff w/o Lat.	12	109335	virtuous	1.0	0.0	False
110.485	0.0	2Suff w/o Lat.	22	110485	relentlessly	1.0	0.0	False
111.635	0.0	2Suff Composite	23	111635	fortification	1.0	0.0	False
112.761	0.0	1Suff PseudoStemNW	14	112761	herfal	0.0	1.0	False
113.978	0.0	1Suff RealStemNW	15	113978	helpive	0.0	0.0	True
115.078	0.0	1Suff PseudoStemNW	14	115078	inflisation	0.0	1.0	False
116.737	0.0	2Suff RealStemNW	25	116737	prophetionist	0.0	1.0	False
118.504	0.0	2Suff RealStemNW	25	118504	sensator	0.0	1.0	False
120.163	0.0	1Suff RealStemNW	15	120163	commerceic	0.0	1.0	False
121.838	0.0	2Suff RealStemNW	25	121838	heroliness	0.0	1.0	False
123.881	0.0	1Suff RealStemNW	15	123881	mercyive	0.0	1.0	False
125.006	0.0	2Suff RealStemNW	25	125006	noisery	0.0	1.0	False
126.198	0.0	0Suff w/o Lat.	2	126198	heart	1.0	0.0	False
127.332	0.0	1Suff RealStemNW	15	127332	stylify	0.0	1.0	False
128.457	0.0	1Suff RealStemNW	15	128457	fruitable	0.0	1.0	False
130.733	0.0	2Suff w/o Lat.	22	130733	brokerage	1.0	0.0	False
132.142	0.0	2Suff PseudoStemNW	24	132142	comfernably	0.0	1.0	False
133.65	0.0	0Suff w/o Lat.	2	133650	courage	1.0	0.0	False
134.676	0.0	2Suff PseudoStemNW	24	134676	herfalist	0.0	1.0	False
135.818	0.0	2Suff RealStemNW	25	135818	nullifilessly	0.0	1.0	False
137.41	0.0	2Suff Composite	23	137410	farcical	1.0	0.0	False
139.511	0.0	1Suff RealStemNW	15	139511	cyclal	0.0	1.0	False
140.886	0.0	2Suff Composite	23	140886	classification	1.0	0.0	False
142.653	0.0	2Suff w/o Lat.	22	142653	commercially	1.0	0.0	False
143.812	0.0	0Suff NW	4	143812	lond	0.0	1.0	False
145.296	0.0	0Suff NW	4	145296	efforn	0.0		False
147.705	0.0	2Suff PseudoStemNW	24	147705	melidification	0.0	1.0	False
148.98	0.0	0Suff w/o Lat.	2	148980	fruit	1.0	0.0	False
150.03	0.0	1Suff PseudoStemNW	14	150030	pipsonal	0.0	1.0	False
151.097	0.0	0Suff NW	4	151097	jok	0.0	1.0	False
152.148	0.0	1Suff RealStemNW	15	152148	victimist	0.0	1.0	False
153.448	0.0	0Suff w/o Lat.	2	153448	just	1.0	0.0	False
154.949	0.0	0Suff w/o Lat.	2	154949	spirit	1.0	0.0	False
156.049	0.0	0Suff NW	4	156049	pimer	0.0	1.0	False
157.124	0.0	1Suff PseudoStemNW	14	157124	nolfy	0.0	1.0	False
158.108	0.0	0Suff NW	4	158108	cronition	0.0	1.0	False
159.05	0.0	1Suff w/o Lat.	12	159050	sensible	1.0	0.0	False
160.009	0.0	2Suff w/o Lat.	22	160009	attractively	1.0	0.0	False
161.209	0.0	0Suff w/o Lat.	2	161209	select	1.0	0.0	False
162.368	0.0	2Suff PseudoStemNW	24	162368	ludsily	0.0	1.0	False
163.435	0.0	2Suff w/o Lat.	22	163435	carelessness	1.0	0.0	False
164.727	0.0	1Suff PseudoStemNW	14	164727	jokous	0.0	1.0	False
165.835	0.0	1Suff w/o Lat.	12	165835	drunken	1.0	0.0	False
166.852	0.0	2Suff RealStemNW	25	166852	variality	0.0	0.0	True
169.045	0.0	2Suff PseudoStemNW	24	169045	comburation	0.0	1.0	False
170.837	0.0	0Suff NW	4	170837	jany	0.0	1.0	False
171.837	0.0	2Suff w/o Lat.	22	171837	righteousness	1.0	0.0	False
172.996	0.0	0Suff w/o Lat.	2	172996	beauty	1.0	0.0	False
174.113	0.0	0Suff w/o Lat.	2	174113	argue	1.0	0.0	False
175.013	0.0	1Suff PseudoStemNW	14	175013	movectize	0.0	1.0	False
176.239	0.0	1Suff RealStemNW	15	176239	careive	0.0	1.0	False
177.431	0.0	1Suff PseudoStemNW	14	177431	indless	0.0	1.0	False
178.406	0.0	1Suff w/o Lat.	12	178406	wonderful	1.0	0.0	False
179.431	0.0	0Suff NW	4	179431	spip	0.0	1.0	False
180.456	0.0	2Suff PseudoStemNW	24	180456	canklessly	0.0	1.0	False
181.699	0.0	2Suff Composite	23	181699	synchronization	1.0	0.0	False
183.066	0.0	0Suff w/o Lat.	2	183066	proceed	1.0	0.0	False
184.324	0.0	2Suff Composite	23	184324	purification	1.0	0.0	False
185.325	0.0	0Suff NW	4	185325	tist	0.0	1.0	False
186.258	0.0	0Suff w/o Lat.	2	186258	suit	1.0	0.0	False
187.359	0.0	0Suff NW	4	187359	combere	0.0	1.0	False
188.701	0.0	1Suff w/o Lat.	12	188701	lovely	1.0	0.0	False
189.643	0.0	2Suff w/o Lat.	22	189643	wonderfully	1.0	1.0	True
191.985	0.0	0Suff NW	4	191985	bruke	0.0		False
194.377	0.0	2Suff w/o Lat.	22	194377	falsification	1.0	0.0	False
195.761	0.0	1Suff PseudoStemNW	14	195761	eschession	0.0	1.0	False
196.92	0.0	0Suff NW	4	196920	rinch	0.0	1.0	False
198.029	0.0	2Suff Composite	23	198029	identification	1.0	0.0	False
199.029	0.0	1Suff PseudoStemNW	14	199029	obwertive	0.0	1.0	False
200.138	0.0	2Suff PseudoStemNW	24	200138	foptration	0.0	1.0	False
201.296	0.0	1Suff RealStemNW	15	201296	selfory	0.0	1.0	False
202.405	0.0	1Suff PseudoStemNW	14	202405	gunderful	0.0	1.0	False
203.58	0.0	1Suff w/o Lat.	12	203580	careless	1.0	0.0	False
204.481	0.0	2Suff PseudoStemNW	24	204481	perfallionist	0.0	1.0	False
205.506	0.0	2Suff w/o Lat.	22	205506	feverishly	1.0	0.0	False
206.598	0.0	2Suff w/o Lat.	22	206598	measurably	1.0	0.0	False
207.556	0.0	1Suff w/o Lat.	12	207556	sharpen	1.0	0.0	False
208.765	0.0	0Suff NW	4	208765	omlic	0.0	1.0	False
209.899	0.0	0Suff w/o Lat.	2	209899	clinic	1.0	0.0	False
210.999	0.0	1Suff RealStemNW	15	210999	foolory	0.0	1.0	False
212.058	0.0	1Suff w/o Lat.	12	212058	slipper	1.0	0.0	False
241.525	0.0	2Suff PseudoStemNW	24	241525	navounalism	0.0	1.0	False
242.751	0.0	2Suff RealStemNW	25	242751	ownmental	0.0	1.0	False
244.184	0.0	0Suff NW	4	244184	awn	0.0	1.0	False
245.226	0.0	2Suff w/o Lat.	22	245226	stylistic	1.0	0.0	False
246.527	0.0	2Suff w/o Lat.	22	246527	powerfully	1.0	0.0	False
247.777	0.0	1Suff w/o Lat.	12	247777	artful	1.0	0.0	False
248.936	0.0	1Suff w/o Lat.	12	248936	tireless	1.0	0.0	False
250.178	0.0	0Suff NW	4	250178	conspode	0.0	1.0	False
251.278	0.0	2Suff RealStemNW	25	251278	commerceantly	0.0	1.0	False
252.654	0.0	2Suff w/o Lat.	22	252654	effortlessly	1.0	0.0	False
254.096	0.0	2Suff w/o Lat.	22	254096	creativity	1.0	0.0	False
255.338	0.0	2Suff RealStemNW	25	255338	noticeator	0.0	1.0	False
256.363	0.0	0Suff w/o Lat.	2	256363	help	1.0	0.0	False
257.505	0.0	2Suff PseudoStemNW	24	257505	mourdfully	0.0	1.0	False
259.214	0.0	1Suff w/o Lat.	12	259214	rightful	1.0	0.0	False
260.298	0.0	2Suff PseudoStemNW	24	260298	provacional	0.0	1.0	False
261.848	0.0	1Suff w/o Lat.	12	261848	prophetic	1.0	0.0	False
263.449	0.0	2Suff w/o Lat.	22	263449	clinically	1.0	0.0	False
264.632	0.0	1Suff RealStemNW	15	264632	comparatful	0.0	1.0	False
265.841	0.0	0Suff w/o Lat.	2	265841	tactic	1.0	0.0	False
267.033	0.0	0Suff NW	4	267033	brealt	0.0	1.0	False
268.167	0.0	0Suff NW	4	268167	mympol	0.0	1.0	False
269.217	0.0	0Suff w/o Lat.	2	269217	method	1.0	0.0	False
270.134	0.0	0Suff NW	4	270134	jist	0.0	1.0	False
271.068	0.0	2Suff PseudoStemNW	24	271068	gunderfully	0.0	1.0	False
272.793	0.0	2Suff PseudoStemNW	24	272793	comberatively	0.0	1.0	False
274.177	0.0	1Suff w/o Lat.	12	274177	abolition	1.0	0.0	False
275.386	0.0	0Suff NW	4	275386	slex	0.0	1.0	False
276.553	0.0	0Suff NW	4	276553	vectue	0.0	1.0	False
277.828	0.0	0Suff NW	4	277828	styke	0.0	1.0	False
278.87	0.0	2Suff w/o Lat.	22	278870	herbalist	1.0	1.0	True
280.137	0.0	0Suff w/o Lat.	2	280137	fear	1.0	0.0	False
281.204	0.0	1Suff w/o Lat.	12	281204	flexible	1.0	0.0	False
282.23	0.0	2Suff Composite	23	282230	solipsistic	1.0	1.0	True
283.555	0.0	2Suff RealStemNW	25	283555	instinctfully	0.0	0.0	True
285.114	0.0	0Suff w/o Lat.	2	285114	module	1.0	0.0	False
286.939	0.0	2Suff PseudoStemNW	24	286939	movectization	0.0	1.0	False
288.173	0.0	0Suff w/o Lat.	2	288173	lust	1.0	0.0	False
289.323	0.0	2Suff PseudoStemNW	24	289323	fortorately	0.0	1.0	False
290.874	0.0	2Suff RealStemNW	25	290874	brutantly	0.0	0.0	True
292.066	0.0	0Suff w/ Lat.	1	292066	explode	1.0	0.0	False
293.891	0.0	0Suff w/o Lat.	2	293891	wonder	1.0	0.0	False
295.284	0.0	2Suff w/o Lat.	22	295284	respectively	1.0	0.0	False
296.267	0.0	2Suff Composite	23	296267	identical	1.0	0.0	False
297.226	0.0	2Suff w/o Lat.	22	297226	artfully	1.0	0.0	False
298.284	0.0	2Suff w/o Lat.	22	298284	customarily	1.0	1.0	True
299.96	0.0	1Suff RealStemNW	15	299960	powerive	0.0	0.0	True
301.427	0.0	1Suff w/o Lat.	12	301427	lucky	1.0	1.0	True
302.944	0.0	2Suff w/ Lat.	21	302944	effectively	1.0	0.0	False
304.436	0.0	0Suff NW	4	304436	adnise	0.0	1.0	False
305.595	0.0	0Suff NW	4	305595	effern	0.0	1.0	False
306.679	0.0	2Suff PseudoStemNW	24	306679	janiability	0.0	1.0	False
307.904	0.0	2Suff w/o Lat.	22	307904	mercilessly	1.0	0.0	False
309.046	0.0	1Suff w/o Lat.	12	309046	comparative	1.0	0.0	False
310.48	0.0	1Suff w/o Lat.	12	310480	passionate	1.0	0.0	False
311.839	0.0	1Suff w/o Lat.	12	311839	respective	1.0	0.0	False
312.881	0.0	0Suff w/o Lat.	2	312881	expand	1.0	0.0	False
313.848	0.0	1Suff w/o Lat.	12	313848	hearty	1.0	0.0	False
314.79	0.0	2Suff Composite	23	314790	valuation	1.0	0.0	False
316.007	0.0	2Suff RealStemNW	25	316007	respectfully	0.0	0.0	True
317.057	0.0	1Suff PseudoStemNW	14	317057	expredive	0.0	1.0	False
318.141	0.0	1Suff w/o Lat.	12	318141	selective	1.0	0.0	False
319.208	0.0	1Suff PseudoStemNW	14	319208	obwertion	0.0	1.0	False
320.241	0.0	0Suff w/o Lat.	2	320241	modern	1.0	0.0	False
321.242	0.0	1Suff w/o Lat.	12	321242	monumental	1.0	0.0	False
322.367	0.0	0Suff w/o Lat.	2	322367	exist	1.0	0.0	False
323.359	0.0	2Suff PseudoStemNW	24	323359	selvation	0.0	1.0	False
324.418	0.0	1Suff RealStemNW	15	324418	noticeless	0.0	0.0	True
325.468	0.0	1Suff PseudoStemNW	14	325468	franical	0.0	1.0	False
326.577	0.0	2Suff w/o Lat.	22	326577	spiritually	1.0	0.0	False
328.802	0.0	2Suff PseudoStemNW	24	328802	jistifiable	0.0	0.0	True
330.028	0.0	1Suff w/o Lat.	12	330028	comical	1.0	0.0	False
331.128	0.0	0Suff w/o Lat.	2	331128	instinct	1.0	0.0	False
332.178	0.0	1Suff PseudoStemNW	14	332178	vetcinate	0.0	1.0	False
333.304	0.0	0Suff NW	4	333304	tedal	0.0	1.0	False
334.304	0.0	0Suff NW	4	334304	lurtile	0.0	1.0	False
335.246	0.0	2Suff RealStemNW	25	335246	valufully	0.0	0.0	True
336.371	0.0	1Suff w/o Lat.	12	336371	methodical	1.0	0.0	False
337.73	0.0	2Suff Composite	23	337730	embarkation	1.0		False
340.122	0.0	2Suff w/ Lat.	21	340122	exceptional	1.0	0.0	False
341.364	0.0	2Suff w/ Lat.	21	341364	excessively	1.0	0.0	False
342.69	0.0	2Suff RealStemNW	25	342690	lustery	0.0	1.0	False
343.857	0.0	2Suff PseudoStemNW	24	343857	vetcination	0.0	1.0	False
345.024	0.0	1Suff PseudoStemNW	14	345024	precukable	0.0	1.0	False
346.083	0.0	2Suff RealStemNW	25	346083	expressmental	0.0	1.0	False
347.35	0.0	2Suff PseudoStemNW	24	347350	sothodically	0.0	1.0	False
348.367	0.0	1Suff PseudoStemNW	14	348367	coyimal	0.0	1.0	False
349.342	0.0	2Suff w/o Lat.	22	349342	noticeably	1.0	0.0	False
350.592	0.0	0Suff NW	4	350592	haint	0.0	1.0	False
351.743	0.0	2Suff w/o Lat.	22	351743	computerize	1.0	0.0	False
352.968	0.0	2Suff RealStemNW	25	352968	excessfully	0.0	0.0	True
354.01	0.0	1Suff w/o Lat.	12	354010	legalize	1.0	0.0	False
355.535	0.0	2Suff w/o Lat.	22	355535	passionately	1.0	0.0	False
356.802	0.0	1Suff w/o Lat.	12	356802	computer	1.0	0.0	False
357.894	0.0	1Suff PseudoStemNW	14	357894	bleadful	0.0	1.0	False
359.87	0.0	1Suff PseudoStemNW	14	359870	cutfural	0.0	1.0	False
361.137	0.0	2Suff PseudoStemNW	24	361137	pimerfully	0.0	1.0	False
362.479	0.0	2Suff PseudoStemNW	24	362479	pipsonality	0.0	1.0	False
363.655	0.0	1Suff RealStemNW	15	363655	classal	0.0	0.0	True
364.647	0.0	1Suff w/o Lat.	12	364647	humanist	1.0	0.0	False
365.922	0.0	2Suff PseudoStemNW	24	365922	paragewical	0.0	1.0	False
367.664	0.0	2Suff RealStemNW	25	367664	penalilessly	0.0	1.0	False
369.181	0.0	1Suff w/o Lat.	12	369181	optical	1.0	1.0	True
370.248	0.0	1Suff PseudoStemNW	14	370248	flivitual	0.0	1.0	False
372.091	0.0	2Suff PseudoStemNW	24	372091	inglinitional	0.0	1.0	False
373.099	0.0	2Suff RealStemNW	25	373099	hierarchally	0.0	0.0	True
374.583	0.0	1Suff RealStemNW	15	374583	causic	0.0	1.0	False
376.55	0.0	2Suff w/o Lat.	22	376550	brutalize	1.0	1.0	True
377.742	0.0	2Suff w/o Lat.	22	377742	endlessly	1.0	0.0	False
379.243	0.0	2Suff RealStemNW	25	379243	joyality	0.0	1.0	False
380.351	0.0	0Suff w/o Lat.	2	380351	dread	1.0	0.0	False
381.535	0.0	2Suff PseudoStemNW	24	381535	massienately	0.0	1.0	False
382.936	0.0	0Suff NW	4	382936	cedil	0.0	1.0	False
384.369	0.0	0Suff NW	4	384369	sedule	0.0	1.0	False
385.561	0.0	2Suff w/o Lat.	22	385561	legalization	1.0	0.0	False
386.687	0.0	2Suff RealStemNW	25	386687	couragliness	0.0	1.0	False
388.012	0.0	2Suff PseudoStemNW	24	388012	flivitually	0.0	1.0	False
389.379	0.0	0Suff w/o Lat.	2	389379	luck	1.0	0.0	False
390.913	0.0	2Suff PseudoStemNW	24	390913	murpilessly	0.0	1.0	False
435.718	0.0	0Suff NW	4	435718	obwert	0.0	1.0	False
436.827	0.0	2Suff w/o Lat.	22	436827	flexibility	1.0	0.0	False
438.294	0.0	2Suff w/o Lat.	22	438294	brutality	1.0	0.0	False
439.745	0.0	2Suff w/o Lat.	22	439745	helpfully	1.0		False
442.145	0.0	2Suff Composite	23	442145	whimsical	1.0	0.0	False
443.354	0.0	2Suff w/o Lat.	22	443354	creatively	1.0	0.0	False
444.463	0.0	2Suff w/o Lat.	22	444463	personalize	1.0	0.0	False
445.455	0.0	0Suff w/o Lat.	2	445455	style	1.0	0.0	False
446.313	0.0	0Suff NW	4	446313	onnend	0.0	1.0	False
447.43	0.0	2Suff w/o Lat.	22	447430	suitability	1.0	0.0	False
448.581	0.0	1Suff w/o Lat.	12	448581	confidence	1.0	0.0	False
449.723	0.0	0Suff NW	4	449723	hett	0.0	1.0	False
450.756	0.0	0Suff NW	4	450756	simn	0.0	1.0	False
452.14	0.0	0Suff NW	4	452140	darber	0.0	1.0	False
453.424	0.0	2Suff PseudoStemNW	24	453424	prosodural	0.0	1.0	False
454.808	0.0	1Suff PseudoStemNW	14	454808	exfallent	0.0	1.0	False
455.966	0.0	1Suff PseudoStemNW	14	455966	brealtless	0.0	1.0	False
457.275	0.0	2Suff PseudoStemNW	24	457275	healtily	0.0	1.0	False
458.692	0.0	0Suff w/o Lat.	2	458692	prophet	1.0	0.0	False
459.843	0.0	1Suff w/o Lat.	12	459843	artist	1.0	0.0	False
460.751	0.0	0Suff w/o Lat.	2	460751	cease	1.0	0.0	False
461.802	0.0	0Suff w/o Lat.	2	461802	self	1.0	0.0	False
462.727	0.0	2Suff w/o Lat.	22	462727	sensuality	1.0	0.0	False
463.61	0.0	0Suff NW	4	463610	shact	0.0	1.0	False
464.561	0.0	0Suff w/o Lat.	2	464561	critic	1.0	0.0	False
465.469	0.0	2Suff w/o Lat.	22	465469	activist	1.0	0.0	False
466.461	0.0	2Suff RealStemNW	25	466461	causional	0.0	1.0	False
467.695	0.0	1Suff w/ Lat.	11	467695	excessive	1.0	0.0	False
469.379	0.0	0Suff w/ Lat.	1	469379	perfect	1.0	0.0	False
470.437	0.0	2Suff PseudoStemNW	24	470437	excrodiveness	0.0	1.0	False
471.855	0.0	0Suff NW	4	471855	arbub	0.0	1.0	False
473.222	0.0	2Suff RealStemNW	25	473222	tacticical	0.0	0.0	True
474.43	0.0	2Suff w/ Lat.	21	474430	exclusiveness	1.0	0.0	False
476.739	0.0	0Suff NW	4	476739	perfall	0.0	1.0	False
477.931	0.0	1Suff w/ Lat.	11	477931	exception	1.0	1.0	True
478.998	0.0	0Suff w/o Lat.	2	478998	danger	1.0	0.0	False
480.09	0.0	1Suff RealStemNW	15	480090	selectful	0.0	1.0	False
481.924	0.0	2Suff RealStemNW	25	481924	purifilessly	0.0	1.0	False
483.675	0.0	1Suff w/o Lat.	12	483675	instinctive	1.0	0.0	False
484.834	0.0	0Suff NW	4	484834	sarument	0.0	1.0	False
486.309	0.0	2Suff w/o Lat.	22	486309	continually	1.0		False
488.718	0.0	1Suff w/o Lat.	12	488718	clinical	1.0	0.0	False
489.985	0.0	2Suff w/o Lat.	22	489985	civilization	1.0	0.0	False
491.027	0.0	0Suff NW	4	491027	greard	0.0	1.0	False
492.269	0.0	2Suff Composite	23	492269	secularization	1.0		False
494.662	0.0	1Suff w/o Lat.	12	494662	assertive	1.0	0.0	False
496.22	0.0	0Suff NW	4	496220	nead	0.0	1.0	False
498.438	0.0	0Suff w/o Lat.	2	498438	cause	1.0	0.0	False
499.555	0.0	1Suff PseudoStemNW	14	499555	selveless	0.0	1.0	False
500.939	0.0	0Suff NW	4	500939	exprede	0.0	1.0	False
502.147	0.0	1Suff w/ Lat.	11	502147	conclusive	1.0	0.0	False
503.281	0.0	2Suff PseudoStemNW	24	503281	patudation	0.0	1.0	False
504.348	0.0	1Suff RealStemNW	15	504348	modernate	0.0	0.0	True
506.007	0.0	0Suff NW	4	506007	flivit	0.0	1.0	False
507.266	0.0	1Suff PseudoStemNW	14	507266	ewilsence	0.0	1.0	False
508.274	0.0	1Suff RealStemNW	15	508274	tireable	0.0		False
510.683	0.0	2Suff RealStemNW	25	510683	expansishness	0.0	1.0	False
512.425	0.0	2Suff w/o Lat.	22	512425	significant	1.0	0.0	False
513.751	0.0	0Suff w/ Lat.	1	513751	excess	1.0	0.0	False
514.993	0.0	2Suff RealStemNW	25	514993	actfully	0.0	0.0	True
516.485	0.0	1Suff w/o Lat.	12	516485	preferable	1.0	0.0	False
517.702	0.0	2Suff PseudoStemNW	24	517702	perfallionism	0.0	1.0	False
519.061	0.0	2Suff Composite	23	519061	altercation	1.0	0.0	False
520.745	0.0	2Suff w/o Lat.	22	520745	traditionally	1.0	0.0	False
522.712	0.0	1Suff w/o Lat.	12	522712	symbolic	1.0	0.0	False
523.854	0.0	2Suff w/o Lat.	22	523854	virtuosity	1.0	0.0	False
525.588	0.0	1Suff w/o Lat.	12	525588	broker	1.0	0.0	False
526.68	0.0	2Suff RealStemNW	25	526680	masterively	0.0	1.0	False
528.114	0.0	1Suff w/o Lat.	12	528114	industrial	1.0	0.0	False
529.272	0.0	0Suff w/o Lat.	2	529272	industry	1.0	0.0	False
530.264	0.0	2Suff w/o Lat.	22	530264	regionally	1.0	0.0	False
531.448	0.0	1Suff w/o Lat.	12	531448	mournful	1.0	0.0	False
532.64	0.0	0Suff w/o Lat.	2	532640	mercy	1.0	0.0	False
533.574	0.0	2Suff RealStemNW	25	533574	computitely	0.0	1.0	False
534.816	0.0	1Suff PseudoStemNW	14	534816	janiable	0.0	1.0	False
535.874	0.0	2Suff w/ Lat.	21	535874	conclusively	1.0	0.0	False
537.108	0.0	1Suff w/o Lat.	12	537108	critical	1.0	0.0	False
538.108	0.0	2Suff RealStemNW	25	538108	intentality	0.0	1.0	False
539.55	0.0	2Suff PseudoStemNW	24	539550	hettlessness	0.0	1.0	False
540.626	0.0	0Suff w/o Lat.	2	540626	kind	1.0	0.0	False
541.818	0.0	1Suff PseudoStemNW	14	541818	crerical	0.0	1.0	False
542.835	0.0	1Suff w/o Lat.	12	542835	collective	1.0	0.0	False
543.977	0.0	2Suff RealStemNW	25	543977	effortiously	0.0	1.0	False
545.269	0.0	0Suff w/o Lat.	2	545269	fever	1.0	0.0	False
546.494	0.0	0Suff w/o Lat.	2	546494	noise	1.0	0.0	False
547.703	0.0	0Suff NW	4	547703	allend	0.0	1.0	False
548.97	0.0	1Suff w/o Lat.	12	548970	continuous	1.0	0.0	False
550.079	0.0	2Suff PseudoStemNW	24	550079	conspodively	0.0	1.0	False
551.246	0.0	1Suff RealStemNW	15	551246	careable	0.0	0.0	True
552.771	0.0	2Suff RealStemNW	25	552771	presumator	0.0	1.0	False
554.438	0.0	0Suff NW	4	554438	inflise	0.0	1.0	False
555.789	0.0	2Suff PseudoStemNW	24	555789	retendlessly	0.0	1.0	False
557.048	0.0	1Suff RealStemNW	15	557048	traditionic	0.0	1.0	False
558.331	0.0	0Suff NW	4	558331	gried	0.0	1.0	False
559.473	0.0	2Suff w/o Lat.	22	559473	carefully	1.0	0.0	False
560.64	0.0	1Suff w/o Lat.	12	560640	creative	1.0	0.0	False
561.674	0.0	1Suff PseudoStemNW	14	561674	awnful	0.0	1.0	False
562.724	0.0	0Suff NW	4	562724	feal	0.0	1.0	False
563.841	0.0	2Suff w/o Lat.	22	563841	fertilizer	1.0	0.0	False
564.925	0.0	0Suff w/o Lat.	2	564925	prefer	1.0	0.0	False
566.059	0.0	2Suff PseudoStemNW	24	566059	booftifully	0.0	1.0	False
567.251	0.0	1Suff w/o Lat.	12	567251	civilize	1.0	0.0	False
568.359	0.0	1Suff w/o Lat.	12	568359	endless	1.0	0.0	False
569.701	0.0	1Suff w/o Lat.	12	569701	breathless	1.0	0.0	False
570.752	0.0	0Suff w/o Lat.	2	570752	continue	1.0	0.0	False
571.835	0.0	2Suff Composite	23	571835	probation	1.0	0.0	False
572.994	0.0	0Suff w/o Lat.	2	572994	notice	1.0	0.0	False
574.061	0.0	0Suff NW	4	574061	lecer	0.0	1.0	False
575.32	0.0	1Suff PseudoStemNW	14	575320	mymbolic	0.0	1.0	False
576.804	0.0	1Suff w/o Lat.	12	576804	traditional	1.0	0.0	False
578.012	0.0	2Suff PseudoStemNW	24	578012	movectistic	0.0	1.0	False
579.154	0.0	2Suff RealStemNW	25	579154	industriantly	0.0	1.0	False
580.596	0.0	2Suff w/o Lat.	22	580596	breathlessly	1.0	0.0	False
582.197	0.0	0Suff w/o Lat.	2	582197	admire	1.0	0.0	False
583.239	0.0	2Suff PseudoStemNW	24	583239	foffification	0.0	1.0	False
584.598	0.0	0Suff NW	4	584598	indlidst	0.0	1.0	False
585.923	0.0	1Suff w/o Lat.	12	585923	fruitless	1.0	0.0	False
587.09	0.0	1Suff RealStemNW	15	587090	assertful	0.0	0.0	True
588.224	0.0	0Suff NW	4	588224	ewils	0.0	1.0	False
619.508	0.0	2Suff Composite	23	619508	nullification	1.0	0.0	False
620.851	0.0	2Suff w/ Lat.	21	620851	perfectionist	1.0	0.0	False
622.493	0.0	0Suff NW	4	622493	nolfs	0.0	1.0	False
623.643	0.0	1Suff RealStemNW	15	623643	collectful	0.0	1.0	False
624.902	0.0	0Suff w/o Lat.	2	624902	haste	1.0	0.0	False
625.977	0.0	0Suff NW	4	625977	boofty	0.0	1.0	False
627.086	0.0	1Suff PseudoStemNW	14	627086	desterful	0.0	1.0	False
628.878	0.0	0Suff w/o Lat.	2	628878	victim	1.0	0.0	False
630.07	0.0	1Suff RealStemNW	15	630070	legalist	0.0	0.0	True
631.32	0.0	0Suff NW	4	631320	herf	0.0	1.0	False
632.346	0.0	0Suff w/o Lat.	2	632346	right	1.0	0.0	False
633.488	0.0	1Suff w/o Lat.	12	633488	selfish	1.0	0.0	False
634.563	0.0	2Suff PseudoStemNW	24	634563	pipsonalize	0.0	1.0	False
635.647	0.0	0Suff w/o Lat.	2	635647	region	1.0	0.0	False
636.73	0.0	1Suff w/o Lat.	12	636730	helpful	1.0	0.0	False
637.822	0.0	2Suff RealStemNW	25	637822	customantly	0.0	1.0	False
639.281	0.0	0Suff NW	4	639281	byvre	0.0	1.0	False
640.54	0.0	0Suff NW	4	640540	ceant	0.0	1.0	False
641.882	0.0	2Suff RealStemNW	25	641882	signmentive	0.0	1.0	False
643.049	0.0	2Suff RealStemNW	25	643049	regionical	0.0	1.0	False
645.241	0.0	2Suff RealStemNW	25	645241	foolality	0.0	1.0	False
646.267	0.0	0Suff NW	4	646267	combure	0.0	1.0	False
647.375	0.0	1Suff RealStemNW	15	647375	passionion	0.0	1.0	False
649.609	0.0	0Suff w/o Lat.	2	649609	person	1.0	1.0	True
651.076	0.0	0Suff w/o Lat.	2	651076	commerce	1.0	1.0	True
652.068	0.0	0Suff NW	4	652068	franic	0.0	1.0	False
653.202	0.0	2Suff RealStemNW	25	653202	virtuerize	0.0	1.0	False
655.036	0.0	0Suff w/o Lat.	2	655036	assert	1.0	0.0	False
656.478	0.0	2Suff w/o Lat.	22	656478	truthfully	1.0	0.0	False
657.845	0.0	2Suff w/o Lat.	22	657845	confidential	1.0	0.0	False
659.687	0.0	2Suff Composite	23	659687	vulgarization	1.0	0.0	False
661.121	0.0	2Suff w/o Lat.	22	661121	beautifully	1.0	0.0	False
662.597	0.0	2Suff w/o Lat.	22	662597	humanistic	1.0	0.0	False
664.364	0.0	0Suff w/ Lat.	1	664364	object	1.0	0.0	False
665.964	0.0	1Suff w/ Lat.	11	665964	provision	1.0	0.0	False
667.848	0.0	2Suff RealStemNW	25	667848	drunkoral	0.0	1.0	False
668.965	0.0	2Suff PseudoStemNW	24	668965	spippery	0.0	1.0	False
670.282	0.0	2Suff RealStemNW	25	670282	feverality	0.0	1.0	False
672.241	0.0	2Suff RealStemNW	25	672241	dergadfully	0.0	1.0	False
673.975	0.0	0Suff w/o Lat.	2	673975	effort	1.0	0.0	False
675.176	0.0	2Suff PseudoStemNW	24	675176	rincheousness	0.0	1.0	False
676.868	0.0	0Suff w/o Lat.	2	676868	excel	1.0	0.0	False
678.21	0.0	1Suff RealStemNW	15	678210	conclusful	0.0	1.0	False
679.71	0.0	2Suff PseudoStemNW	24	679710	sedulation	0.0		False
682.111	0.0	2Suff RealStemNW	25	682111	ordinfully	0.0	1.0	False
683.57	0.0	1Suff RealStemNW	15	683570	momentish	0.0	1.0	False
685.495	0.0	2Suff w/o Lat.	22	685495	dreadfully	1.0		False
687.896	0.0	2Suff w/ Lat.	21	687896	exclusively	1.0	0.0	False
689.18	0.0	0Suff w/ Lat.	1	689180	conclude	1.0	0.0	False
690.547	0.0	0Suff NW	4	690547	comfern	0.0	1.0	False
691.764	0.0	1Suff w/o Lat.	12	691764	fertilize	1.0	0.0	False
693.148	0.0	2Suff w/o Lat.	22	693148	nationalist	1.0	0.0	False
694.206	0.0	1Suff w/o Lat.	12	694206	continual	1.0	0.0	False
695.715	0.0	2Suff w/o Lat.	22	695715	fertilization	1.0	0.0	False
697.649	0.0	2Suff RealStemNW	25	697649	selectfully	0.0	0.0	True
698.616	0.0	1Suff w/o Lat.	12	698616	hasty	1.0	0.0	False
699.641	0.0	2Suff w/o Lat.	22	699641	foolishly	1.0	0.0	False
700.808	0.0	2Suff PseudoStemNW	24	700808	rinchfully	0.0	1.0	False
702.109	0.0	1Suff w/o Lat.	12	702109	merciless	1.0	0.0	False
703.118	0.0	0Suff w/o Lat.	2	703118	care	1.0	0.0	False
704.109	0.0	0Suff w/ Lat.	1	704109	inspire	1.0	0.0	False
705.135	0.0	2Suff RealStemNW	25	705135	identifilessly	0.0	1.0	False
706.585	0.0	2Suff PseudoStemNW	24	706585	excrodively	0.0	1.0	False
707.794	0.0	1Suff w/o Lat.	12	707794	joyous	1.0	0.0	False
709.303	0.0	2Suff PseudoStemNW	24	709303	flivitualize	0.0		False
711.703	0.0	2Suff w/o Lat.	22	711703	instinctively	1.0	0.0	False
712.996	0.0	1Suff w/o Lat.	12	712996	attractive	1.0	0.0	False
713.988	0.0	2Suff Composite	23	713988	penalization	1.0	1.0	True
715.513	0.0	0Suff NW	4	715513	combore	0.0	0.0	True
716.722	0.0	2Suff w/o Lat.	22	716722	critically	1.0	0.0	False
718.872	0.0	2Suff w/o Lat.	22	718872	comfortably	1.0	0.0	False
720.264	0.0	2Suff w/o Lat.	22	720264	foolishness	1.0	0.0	False
721.632	0.0	2Suff Composite	23	721632	maturation	1.0	0.0	False
722.757	0.0	2Suff w/o Lat.	22	722757	optically	1.0	0.0	False
723.907	0.0	2Suff w/o Lat.	22	723907	artistic	1.0	0.0	False
725.083	0.0	2Suff w/ Lat.	21	725083	effectiveness	1.0	0.0	False
726.291	0.0	0Suff NW	4	726291	pipson	0.0	1.0	False
727.475	0.0	1Suff w/ Lat.	11	727475	intention	1.0	0.0	False
728.784	0.0	2Suff w/o Lat.	22	728784	heartily	1.0	0.0	False
729.984	0.0	0Suff NW	4	729984	selp	0.0	0.0	True
730.968	0.0	2Suff PseudoStemNW	24	730968	eschessionist	0.0	1.0	False
732.235	0.0	2Suff w/o Lat.	22	732235	actively	1.0	0.0	False
733.627	0.0	0Suff w/o Lat.	2	733627	sense	1.0	0.0	False
734.736	0.0	2Suff w/o Lat.	22	734736	selfishness	1.0	0.0	False
735.828	0.0	2Suff w/ Lat.	21	735828	presumably	1.0	0.0	False
736.87	0.0	1Suff w/o Lat.	12	736870	causal	1.0	0.0	False
737.962	0.0	1Suff PseudoStemNW	14	737962	shacten	0.0	1.0	False
739.245	0.0	2Suff w/o Lat.	22	739245	personally	1.0	0.0	False
740.262	0.0	1Suff PseudoStemNW	14	740262	atstartive	0.0	1.0	False
741.363	0.0	0Suff w/o Lat.	2	741363	mourn	1.0	0.0	False
742.471	0.0	1Suff PseudoStemNW	14	742471	darberous	0.0	1.0	False
743.78	0.0	1Suff w/o Lat.	12	743780	stylist	1.0	0.0	False
745.014	0.0	2Suff RealStemNW	25	745014	legalability	0.0	1.0	False
746.389	0.0	2Suff RealStemNW	25	746389	artional	0.0	1.0	False
747.481	0.0	2Suff w/o Lat.	22	747481	hastily	1.0	0.0	False
748.965	0.0	1Suff RealStemNW	15	748965	helpable	0.0	0.0	True
750.54	0.0	1Suff w/o Lat.	12	750540	vaccinate	1.0	0.0	False
752.033	0.0	1Suff w/o Lat.	12	752033	attentive	1.0	0.0	False
753.516	0.0	0Suff NW	4	753516	abadill	0.0	1.0	False
755.342	0.0	0Suff w/o Lat.	2	755342	art	1.0	0.0	False
756.434	0.0	1Suff w/o Lat.	12	756434	ceaseless	1.0	0.0	False
757.876	0.0	1Suff PseudoStemNW	14	757876	simnify	0.0	0.0	True
759.351	0.0	0Suff NW	4	759351	pacic	0.0	1.0	False
760.719	0.0	2Suff RealStemNW	25	760719	exceptality	0.0	1.0	False
762.786	0.0	2Suff PseudoStemNW	24	762786	grearively	0.0	1.0	False
763.928	0.0	0Suff NW	4	763928	dester	0.0	1.0	False
764.92	0.0	1Suff RealStemNW	15	764920	purant	0.0	1.0	False
766.02	0.0	2Suff w/o Lat.	22	766020	drunkenly	1.0	1.0	True
768.096	0.0	0Suff w/o Lat.	2	768096	broke	1.0	0.0	False
769.33	0.0	0Suff NW	4	769330	faice	0.0	1.0	False
770.48	0.0	2Suff PseudoStemNW	24	770480	hettfully	0.0	1.0	False
771.564	0.0	1Suff RealStemNW	15	771564	variment	0.0	1.0	False
772.589	0.0	2Suff PseudoStemNW	24	772589	jokfully	0.0	1.0	False
773.756	0.0	2Suff RealStemNW	25	773756	criticical	0.0	1.0	False
775.365	0.0	0Suff w/ Lat.	1	775365	institute	1.0	1.0	True
776.648	0.0	0Suff NW	4	776648	connurt	0.0	1.0	False
778.757	0.0	1Suff w/o Lat.	12	778757	cultural	1.0	0.0	False
780.716	0.0	1Suff RealStemNW	15	780716	feverory	0.0	1.0	False
782.159	0.0	1Suff PseudoStemNW	14	782159	selvual	0.0	1.0	False
841.118	0.0	2Suff RealStemNW	25	841118	continliness	0.0	1.0	False
842.244	0.0	2Suff w/o Lat.	22	842244	dangerously	1.0	0.0	False
844.044	0.0	2Suff RealStemNW	25	844044	assertishness	0.0	1.0	False
845.436	0.0	0Suff NW	4	845436	mourd	0.0	1.0	False
846.587	0.0	0Suff NW	4	846587	podent	0.0	1.0	False
847.529	0.0	1Suff w/o Lat.	12	847529	herbal	1.0	0.0	False
848.529	0.0	0Suff w/o Lat.	2	848529	compare	1.0	0.0	False
849.404	0.0	1Suff PseudoStemNW	14	849404	healty	0.0	1.0	False
850.471	0.0	2Suff Composite	23	850471	quizzical	1.0	0.0	False
851.63	0.0	2Suff w/o Lat.	22	851630	justification	1.0	0.0	False
852.989	0.0	0Suff NW	4	852989	eschess	0.0	1.0	False
854.131	0.0	1Suff RealStemNW	15	854131	conductful	0.0	0.0	True
855.423	0.0	0Suff w/o Lat.	2	855423	flex	1.0	0.0	False
856.673	0.0	1Suff w/o Lat.	12	856673	foolish	1.0	0.0	False
857.698	0.0	2Suff Composite	23	857698	orientation	1.0	0.0	False
859.016	0.0	2Suff w/o Lat.	22	859016	greedily	1.0	0.0	False
860.116	0.0	0Suff w/o Lat.	2	860116	attend	1.0	0.0	False
861.041	0.0	2Suff w/o Lat.	22	861041	truthfulness	1.0	0.0	False
862.425	0.0	2Suff PseudoStemNW	24	862425	soripsistic	0.0	1.0	False
863.817	0.0	0Suff NW	4	863817	selve	0.0	1.0	False
865.593	0.0	1Suff w/ Lat.	11	865593	exclusive	1.0	0.0	False
866.768	0.0	1Suff PseudoStemNW	14	866768	orner	0.0	1.0	False
867.81	0.0	1Suff w/o Lat.	12	867810	procedure	1.0	0.0	False
868.86	0.0	0Suff w/ Lat.	1	868860	conduct	1.0	0.0	False
869.952	0.0	2Suff Composite	23	869952	paradoxical	1.0	0.0	False
871.061	0.0	0Suff NW	4	871061	excrode	0.0	1.0	False
872.145	0.0	0Suff w/o Lat.	2	872145	custom	1.0	0.0	False
873.17	0.0	2Suff RealStemNW	25	873170	brokiness	0.0	1.0	False
874.429	0.0	2Suff RealStemNW	25	874429	clinicical	0.0	0.0	True
875.504	0.0	1Suff PseudoStemNW	14	875504	awnist	0.0	1.0	False
876.913	0.0	2Suff RealStemNW	25	876913	sensfulness	0.0	1.0	False
878.355	0.0	0Suff w/o Lat.	2	878355	create	1.0	0.0	False
879.689	0.0	2Suff w/o Lat.	22	879689	senselessly	1.0	0.0	False
881.881	0.0	2Suff PseudoStemNW	24	881881	tistlessly	0.0	1.0	False
883.206	0.0	0Suff w/ Lat.	1	883206	express	1.0	0.0	False
884.707	0.0	2Suff PseudoStemNW	24	884707	awnfully	0.0	1.0	False
885.765	0.0	2Suff RealStemNW	25	885765	explosfully	0.0	1.0	False
886.874	0.0	2Suff RealStemNW	25	886874	classally	0.0	1.0	False
888.083	0.0	1Suff w/o Lat.	12	888083	careful	1.0	0.0	False
889.025	0.0	0Suff NW	4	889025	brole	0.0	1.0	False
890.092	0.0	1Suff PseudoStemNW	14	890092	rinchful	0.0	1.0	False
891.109	0.0	0Suff NW	4	891109	lums	0.0	1.0	False
892.101	0.0	2Suff w/o Lat.	22	892101	tirelessly	1.0	0.0	False
893.626	0.0	0Suff NW	4	893626	cank	0.0	1.0	False
894.71	0.0	0Suff NW	4	894710	freat	0.0	1.0	False
895.902	0.0	2Suff w/o Lat.	22	895902	commercialize	1.0	0.0	False
897.611	0.0	1Suff RealStemNW	15	897611	nationic	0.0	1.0	False
899.061	0.0	2Suff PseudoStemNW	24	899061	arresogical	0.0	1.0	False
900.212	0.0	1Suff w/o Lat.	12	900212	suitable	1.0	0.0	False
901.304	0.0	2Suff w/o Lat.	22	901304	slippery	1.0	0.0	False
902.446	0.0	1Suff w/o Lat.	12	902446	customary	1.0	0.0	False
903.821	0.0	1Suff w/ Lat.	11	903821	composite	1.0	0.0	False
905.005	0.0	0Suff NW	4	905005	coyim	0.0	1.0	False
906.022	0.0	0Suff w/o Lat.	2	906022	need	1.0	0.0	False
907.055	0.0	0Suff w/o Lat.	2	907055	tradition	1.0	0.0	False
908.181	0.0	2Suff RealStemNW	25	908181	civilability	0.0	1.0	False
909.289	0.0	1Suff PseudoStemNW	14	909289	booftiful	0.0	1.0	False
910.315	0.0	2Suff w/o Lat.	22	910315	classical	1.0	0.0	False
911.523	0.0	1Suff w/o Lat.	12	911523	effortless	1.0	0.0	False
912.64	0.0	0Suff NW	4	912640	orn	0.0	1.0	False
913.816	0.0	2Suff Composite	23	913816	hierarchical	1.0	1.0	True
915.408	0.0	2Suff PseudoStemNW	24	915408	trithfulness	0.0	1.0	False
916.733	0.0	0Suff w/o Lat.	2	916733	brute	1.0	0.0	False
917.9	0.0	1Suff PseudoStemNW	14	917900	griedy	0.0	1.0	False
919.142	0.0	2Suff Composite	23	919142	victimization	1.0	0.0	False
920.693	0.0	2Suff w/o Lat.	22	920693	spiritualize	1.0	0.0	False
922.402	0.0	1Suff w/o Lat.	12	922402	greedy	1.0	0.0	False
923.519	0.0	2Suff PseudoStemNW	24	923519	mymbolically	0.0	1.0	False
925.594	0.0	1Suff w/o Lat.	12	925594	lonely	1.0	0.0	False
927.003	0.0	2Suff PseudoStemNW	24	927003	griedily	0.0	0.0	True
928.337	0.0	0Suff NW	4	928337	tablic	0.0	1.0	False
929.412	0.0	0Suff NW	4	929412	exfapt	0.0	1.0	False
930.362	0.0	2Suff w/o Lat.	22	930362	expansiveness	1.0	0.0	False
932.03	0.0	1Suff w/o Lat.	12	932030	righteous	1.0	0.0	False
932.988	0.0	0Suff NW	4	932988	kibs	0.0	1.0	False
934.014	0.0	1Suff w/ Lat.	11	934014	perfection	1.0	0.0	False
934.914	0.0	1Suff w/o Lat.	12	934914	modernist	1.0	0.0	False
935.914	0.0	0Suff NW	4	935914	contitum	0.0	1.0	False
937.34	0.0	1Suff RealStemNW	15	937340	relentable	0.0	0.0	True
938.723	0.0	0Suff w/o Lat.	2	938723	herb	1.0	0.0	False
939.782	0.0	1Suff w/o Lat.	12	939782	purify	1.0	0.0	False
940.866	0.0	2Suff PseudoStemNW	24	940866	bleadfully	0.0	1.0	False
941.966	0.0	1Suff PseudoStemNW	14	941966	contituous	0.0	0.0	True
943.083	0.0	2Suff RealStemNW	25	943083	useiously	0.0	1.0	False
944.992	0.0	1Suff RealStemNW	15	944992	selfable	0.0	1.0	False
946.226	0.0	1Suff w/o Lat.	12	946226	truthful	1.0	0.0	False
947.526	0.0	0Suff NW	4	947526	provace	0.0		False
949.927	0.0	0Suff w/o Lat.	2	949927	comic	1.0	0.0	False
951.202	0.0	1Suff w/ Lat.	11	951202	explosive	1.0	0.0	False
952.286	0.0	2Suff w/o Lat.	22	952286	activity	1.0	0.0	False
953.37	0.0	1Suff PseudoStemNW	14	953370	comfernable	0.0		False
955.77	0.0	0Suff w/o Lat.	2	955770	FALSE	1.0	0.0	False
956.946	0.0	0Suff NW	4	956946	hunen	0.0	1.0	False
957.963	0.0	0Suff w/o Lat.	2	957963	comfort	1.0	0.0	False
958.971	0.0	2Suff w/o Lat.	22	958971	assertiveness	1.0	0.0	False
960.288	0.0	2Suff PseudoStemNW	24	960288	shactener	0.0	1.0	False
961.447	0.0	1Suff w/o Lat.	12	961447	variable	1.0	0.0	False
962.822	0.0	2Suff PseudoStemNW	24	962822	flivitualism	0.0	1.0	False
963.956	0.0	2Suff RealStemNW	25	963956	magicical	0.0	1.0	False
965.223	0.0	2Suff RealStemNW	25	965223	nationical	0.0	1.0	False
966.674	0.0	2Suff RealStemNW	25	966674	careiousness	0.0	1.0	False
968.366	0.0	2Suff w/o Lat.	22	968366	noisily	1.0	0.0	False
969.691	0.0	2Suff w/o Lat.	22	969691	fortunately	1.0	0.0	False
970.833	0.0	0Suff w/o Lat.	2	970833	power	1.0	0.0	False
972.092	0.0	2Suff w/o Lat.	22	972092	loneliness	1.0	0.0	False
973.284	0.0	1Suff w/o Lat.	12	973284	tactical	1.0	0.0	False
974.501	0.0	1Suff RealStemNW	15	974501	industryic	0.0	1.0	False
975.751	0.0	2Suff Composite	23	975751	voyeuristic	1.0	0.0	False
977.085	0.0	2Suff PseudoStemNW	24	977085	contitually	0.0	1.0	False
979.061	0.0	1Suff PseudoStemNW	14	979061	prosodure	0.0	1.0	False
980.795	0.0	0Suff w/ Lat.	1	980795	intend	1.0	0.0	False
982.378	0.0	2Suff PseudoStemNW	24	982378	effornively	0.0	1.0	False
983.721	0.0	2Suff PseudoStemNW	24	983721	onwertionable	0.0	1.0	False
984.938	0.0	1Suff w/o Lat.	12	984938	excellent	1.0	0.0	False
986.53	0.0	0Suff NW	4	986530	cutfure	0.0	1.0	False
987.872	0.0	1Suff RealStemNW	15	987872	fearive	0.0	1.0	False
989.147	0.0	1Suff RealStemNW	15	989147	tacticic	0.0	1.0	False
990.514	0.0	0Suff NW	4	990514	carsh	0.0	1.0	False
992.132	0.0	0Suff w/o Lat.	2	992132	pure	1.0	0.0	False
1053.275	0.0	0Suff NW	4	1053275	blunk	0.0	1.0	False
1054.701	0.0	0Suff w/o Lat.	2	1054701	abolish	1.0	0.0	False
1056.093	0.0	1Suff w/o Lat.	12	1056093	classic	1.0	0.0	False
1057.335	0.0	2Suff RealStemNW	25	1057335	ceaseiously	0.0	1.0	False
1058.527	0.0	2Suff Composite	23	1058527	degradation	1.0	0.0	False
1059.902	0.0	1Suff w/ Lat.	11	1059902	conductive	1.0	0.0	False
1061.328	0.0	2Suff PseudoStemNW	24	1061328	feamfully	0.0	1.0	False
1062.645	0.0	2Suff PseudoStemNW	24	1062645	cankfully	0.0	1.0	False
1063.829	0.0	2Suff PseudoStemNW	24	1063829	ewilsential	0.0	1.0	False
1065.062	0.0	0Suff w/o Lat.	2	1065062	relent	1.0	0.0	False
1066.304	0.0	1Suff RealStemNW	15	1066304	institutate	0.0	1.0	False
1067.405	0.0	2Suff w/ Lat.	21	1067405	inspirational	1.0	0.0	False
1068.497	0.0	0Suff NW	4	1068497	prosood	0.0	1.0	False
1070.614	0.0	1Suff PseudoStemNW	14	1070614	rincheous	0.0	1.0	False
1072.064	0.0	2Suff PseudoStemNW	24	1072064	cladsification	0.0	1.0	False
1073.256	0.0	0Suff w/o Lat.	2	1073256	joy	1.0	0.0	False
1074.248	0.0	2Suff RealStemNW	25	1074248	objectfully	0.0	1.0	False
1076.416	0.0	1Suff w/o Lat.	12	1076416	national	1.0	0.0	False
1077.349	0.0	1Suff w/o Lat.	12	1077349	falsify	1.0	0.0	False
1078.275	0.0	2Suff w/o Lat.	22	1078275	spiritualism	1.0	0.0	False
1079.208	0.0	0Suff NW	4	1079208	assork	0.0	1.0	False
1080.325	0.0	0Suff NW	4	1080325	vetcine	0.0	1.0	False
1081.334	0.0	2Suff RealStemNW	25	1081334	admirical	0.0	1.0	False
1082.593	0.0	2Suff PseudoStemNW	24	1082593	arpivity	0.0	1.0	False
1083.693	0.0	1Suff w/o Lat.	12	1083693	senseless	1.0	0.0	False
1084.81	0.0	0Suff NW	4	1084810	meleft	0.0	1.0	False
1085.869	0.0	2Suff RealStemNW	25	1085869	endiously	0.0	1.0	False
1086.877	0.0	0Suff w/o Lat.	2	1086877	class	1.0	0.0	False
1087.869	0.0	2Suff w/o Lat.	22	1087869	collectively	1.0	0.0	False
1088.97	0.0	2Suff w/ Lat.	21	1088970	perfectionism	1.0	0.0	False
1090.545	0.0	2Suff w/o Lat.	22	1090545	preferably	1.0	0.0	False
1091.729	0.0	2Suff PseudoStemNW	24	1091729	sarumentally	0.0	0.0	True
1093.129	0.0	2Suff w/o Lat.	22	1093129	sensibility	1.0	0.0	False
1094.271	0.0	1Suff PseudoStemNW	14	1094271	hainy	0.0	1.0	False
1095.33	0.0	0Suff w/o Lat.	2	1095330	slip	1.0	0.0	False
1096.397	0.0	2Suff w/o Lat.	22	1096397	fruitlessly	1.0	0.0	False
1097.539	0.0	0Suff w/o Lat.	2	1097539	fortune	1.0	0.0	False
1098.523	0.0	1Suff w/o Lat.	12	1098523	magical	1.0	0.0	False
1099.523	0.0	2Suff Composite	23	1099523	ordination	1.0	0.0	False
1100.948	0.0	0Suff w/o Lat.	2	1100948	vaccine	1.0	0.0	False
1102.632	0.0	0Suff w/ Lat.	1	1102632	except	1.0	0.0	False
1104.024	0.0	2Suff w/o Lat.	22	1104024	joyfully	1.0	0.0	False
1105.358	0.0	2Suff w/o Lat.	22	1105358	cyclical	1.0	0.0	False
1106.775	0.0	1Suff RealStemNW	15	1106775	composian	0.0	1.0	False
1109.051	0.0	2Suff w/ Lat.	21	1109051	objectively	1.0	0.0	False
1110.451	0.0	1Suff RealStemNW	15	1110451	slippor	0.0	1.0	False
1111.668	0.0	0Suff w/o Lat.	2	1111668	drunk	1.0	0.0	False
1112.694	0.0	2Suff w/o Lat.	22	1112694	attentively	1.0	0.0	False
1113.711	0.0	2Suff w/o Lat.	22	1113711	causality	1.0	0.0	False
1114.661	0.0	2Suff w/o Lat.	22	1114661	drunkenness	1.0	0.0	False
1115.953	0.0	2Suff RealStemNW	25	1115953	brutional	0.0	1.0	False
1117.462	0.0	1Suff RealStemNW	15	1117462	perfectate	0.0	1.0	False
1118.662	0.0	1Suff RealStemNW	15	1118662	exclusful	0.0	1.0	False
1119.804	0.0	2Suff RealStemNW	25	1119804	voyeurional	0.0	1.0	False
1121.071	0.0	2Suff PseudoStemNW	24	1121071	pipsonally	0.0	1.0	False
1122.097	0.0	2Suff w/o Lat.	22	1122097	comically	1.0	0.0	False
1123.289	0.0	0Suff w/o Lat.	2	1123289	sharp	1.0	0.0	False
1124.281	0.0	1Suff RealStemNW	15	1124281	effectful	0.0	0.0	True
1125.264	0.0	0Suff w/o Lat.	2	1125264	tire	1.0	0.0	False
1126.723	0.0	2Suff RealStemNW	25	1126723	creatously	0.0	1.0	False
1127.965	0.0	0Suff NW	4	1127965	rebuin	0.0	1.0	False
1129.599	0.0	1Suff PseudoStemNW	14	1129599	comburer	0.0	1.0	False
1131.508	0.0	2Suff w/o Lat.	22	1131508	argumentative	1.0	0.0	False
1132.866	0.0	0Suff NW	4	1132866	atstart	0.0		False
1135.267	0.0	0Suff w/o Lat.	2	1135267	cycle	1.0	0.0	False
1136.509	0.0	2Suff PseudoStemNW	24	1136509	atstartively	0.0	1.0	False
1137.71	0.0	1Suff PseudoStemNW	14	1137710	jokful	0.0	1.0	False
1139.077	0.0	1Suff PseudoStemNW	14	1139077	omlical	0.0	1.0	False
1140.294	0.0	1Suff PseudoStemNW	14	1140294	seetable	0.0	1.0	False
1141.477	0.0	2Suff PseudoStemNW	24	1141477	lokeliness	0.0	1.0	False
1142.578	0.0	2Suff RealStemNW	25	1142578	senseiously	0.0	1.0	False
1143.853	0.0	0Suff w/o Lat.	2	1143853	virtue	1.0	1.0	True
1145.104	0.0	2Suff RealStemNW	25	1145104	neediously	0.0	1.0	False
1146.412	0.0	2Suff w/ Lat.	21	1146412	composition	1.0	0.0	False
1147.321	0.0	2Suff PseudoStemNW	24	1147321	navounality	0.0	1.0	False
1148.53	0.0	2Suff RealStemNW	25	1148530	breathiously	0.0	1.0	False
1150.697	0.0	1Suff w/o Lat.	12	1150697	secondary	1.0	1.0	True
1152.272	0.0	2Suff w/o Lat.	22	1152272	activate	1.0	0.0	False
1153.565	0.0	0Suff w/o Lat.	2	1153565	fool	1.0	0.0	False
1154.865	0.0	1Suff w/ Lat.	11	1154865	institution	1.0	0.0	False
1156.057	0.0	2Suff w/ Lat.	21	1156057	explosively	1.0	0.0	False
1158.383	0.0	1Suff RealStemNW	15	1158383	preferless	0.0	1.0	False
1160.0	0.0	2Suff RealStemNW	25	1160000	fertilability	0.0	1.0	False
1162.059	0.0	2Suff w/o Lat.	22	1162059	fearfully	1.0		False
1164.443	0.0	1Suff PseudoStemNW	14	1164443	sothodical	0.0	1.0	False
1165.66	0.0	1Suff RealStemNW	15	1165660	magicic	0.0	1.0	False
1166.744	0.0	2Suff RealStemNW	25	1166744	actional	0.0	1.0	False
1168.261	0.0	2Suff RealStemNW	25	1168261	synchronilessly	0.0	1.0	False
1169.761	0.0	0Suff NW	4	1169761	feam	0.0	1.0	False
1170.903	0.0	2Suff w/o Lat.	22	1170903	kindliness	1.0	0.0	False
1172.204	0.0	1Suff PseudoStemNW	14	1172204	recrernive	0.0	1.0	False
1173.454	0.0	1Suff w/o Lat.	12	1173454	courageous	1.0	0.0	False
1175.238	0.0	0Suff w/o Lat.	2	1175238	truth	1.0	0.0	False
1176.422	0.0	2Suff PseudoStemNW	24	1176422	conwodential	0.0	1.0	False
1177.414	0.0	0Suff w/o Lat.	2	1177414	magic	1.0	0.0	False
1178.614	0.0	0Suff w/o Lat.	2	1178614	human	1.0	0.0	False
1179.698	0.0	2Suff RealStemNW	25	1179698	attentfully	0.0	0.0	True
1180.998	0.0	2Suff w/o Lat.	22	1180998	uselessly	1.0	0.0	False
1182.315	0.0	1Suff w/o Lat.	12	1182315	personal	1.0	0.0	False
1183.499	0.0	2Suff PseudoStemNW	24	1183499	darberously	0.0	0.0	True
1185.024	0.0	1Suff RealStemNW	15	1185024	kinden	0.0	1.0	False
1186.766	0.0	0Suff NW	4	1186766	conwode	0.0	1.0	False
1188.117	0.0	2Suff RealStemNW	25	1188117	momentantly	0.0	0.0	True
1189.167	0.0	2Suff w/o Lat.	22	1189167	abolitionist	1.0		False
1191.576	0.0	1Suff RealStemNW	15	1191576	continuic	0.0		False
1193.969	0.0	2Suff w/o Lat.	22	1193969	lustily	1.0		False
1196.369	0.0	2Suff Composite	23	1196369	annexation	1.0	1.0	True
1197.728	0.0	2Suff w/o Lat.	22	1197728	excellently	1.0	1.0	True
1198.995	0.0	0Suff w/o Lat.	2	1198995	greed	1.0	0.0	False
1200.162	0.0	1Suff PseudoStemNW	14	1200162	elpardive	0.0	1.0	False
1201.213	0.0	0Suff NW	4	1201213	esress	0.0	1.0	False
1202.146	0.0	1Suff w/o Lat.	12	1202146	various	1.0	0.0	False
1203.138	0.0	2Suff w/o Lat.	22	1203138	helplessly	1.0	0.0	False
1204.155	0.0	2Suff RealStemNW	25	1204155	whimsally	0.0	0.0	True
1205.33	0.0	0Suff NW	4	1205330	exfal	0.0	1.0	False
1206.397	0.0	2Suff w/o Lat.	22	1206397	masterfully	1.0	0.0	False
1207.581	0.0	2Suff w/o Lat.	22	1207581	mournfully	1.0	0.0	False
1208.59	0.0	2Suff w/o Lat.	22	1208590	procedural	1.0	0.0	False
1209.915	0.0	0Suff w/ Lat.	1	1209915	presume	1.0	0.0	False
1248.41	0.0	2Suff w/o Lat.	22	1248410	comparatively	1.0	0.0	False
1249.577	0.0	1Suff PseudoStemNW	14	1249577	esressive	0.0	1.0	False
1250.711	0.0	2Suff w/ Lat.	21	1250711	provisional	1.0	0.0	False
1251.936	0.0	2Suff PseudoStemNW	24	1251936	fipitation	0.0	1.0	False
1252.97	0.0	2Suff RealStemNW	25	1252970	selectously	0.0	1.0	False
1254.054	0.0	2Suff RealStemNW	25	1254054	nationantly	0.0	0.0	True
1255.112	0.0	2Suff w/o Lat.	22	1255112	sharpener	1.0	0.0	False
1256.68	0.0	2Suff w/o Lat.	22	1256680	courageously	1.0	0.0	False
1258.338	0.0	2Suff w/o Lat.	22	1258338	rightfully	1.0	0.0	False
1259.33	0.0	0Suff NW	4	1259330	cuppom	0.0	1.0	False
1260.372	0.0	1Suff w/o Lat.	12	1260372	helpless	1.0	0.0	False
1261.373	0.0	1Suff RealStemNW	15	1261373	admirless	0.0	1.0	False
1262.698	0.0	2Suff RealStemNW	25	1262698	quizzally	0.0	1.0	False
1263.974	0.0	1Suff RealStemNW	15	1263974	creatful	0.0	0.0	True
1264.974	0.0	1Suff w/o Lat.	12	1264974	beautiful	1.0	1.0	True
1266.458	0.0	2Suff PseudoStemNW	24	1266458	blunkenness	0.0	1.0	False
1267.741	0.0	2Suff RealStemNW	25	1267741	actality	0.0	1.0	False
1268.817	0.0	0Suff NW	4	1268817	inglinite	0.0	1.0	False
1269.75	0.0	0Suff NW	4	1269750	retend	0.0	1.0	False
1270.684	0.0	2Suff RealStemNW	25	1270684	commerceical	0.0	0.0	True
1271.609	0.0	2Suff Composite	23	1271609	computation	1.0	0.0	False
1272.876	0.0	1Suff RealStemNW	15	1272876	provisate	0.0	1.0	False
1274.143	0.0	1Suff PseudoStemNW	14	1274143	broler	0.0	1.0	False
1275.11	0.0	0Suff w/o Lat.	2	1275110	lone	1.0	1.0	True
1276.011	0.0	1Suff w/o Lat.	12	1276011	kindly	1.0	0.0	False
1277.169	0.0	0Suff NW	4	1277169	clade	0.0	1.0	False
1278.528	0.0	1Suff RealStemNW	15	1278528	fertilist	0.0	1.0	False
1279.595	0.0	2Suff w/o Lat.	22	1279595	secondarily	1.0	0.0	False
1280.779	0.0	2Suff PseudoStemNW	24	1280779	flivituality	0.0	1.0	False
1281.754	0.0	2Suff RealStemNW	25	1281754	selfiousness	0.0	1.0	False
1282.854	0.0	0Suff w/o Lat.	2	1282854	respect	1.0	0.0	False
1284.08	0.0	1Suff w/o Lat.	12	1284080	masterful	1.0	0.0	False
1285.238	0.0	0Suff NW	4	1285238	precuke	0.0	0.0	True
1287.064	0.0	2Suff w/ Lat.	21	1287064	objectionable	1.0	0.0	False
1288.256	0.0	1Suff RealStemNW	15	1288256	virtance	0.0		False
1290.632	0.0	2Suff PseudoStemNW	24	1290632	arbumentative	0.0	1.0	False
1291.982	0.0	2Suff RealStemNW	25	1291982	hastery	0.0	1.0	False
1292.991	0.0	2Suff RealStemNW	25	1292991	signiousness	0.0	1.0	False
1294.224	0.0	2Suff w/o Lat.	22	1294224	selectively	1.0	1.0	True
1295.583	0.0	1Suff w/o Lat.	12	1295583	sensual	1.0		False
1297.984	0.0	2Suff RealStemNW	25	1297984	farcally	0.0	1.0	False
1299.076	0.0	0Suff NW	4	1299076	seet	0.0	1.0	False
1300.435	0.0	2Suff w/o Lat.	22	1300435	needlessly	1.0	0.0	False
1302.102	0.0	1Suff RealStemNW	15	1302102	monumentic	0.0	0.0	True
1303.961	0.0	0Suff NW	4	1303961	traphet	0.0	0.0	True
1305.328	0.0	2Suff PseudoStemNW	24	1305328	procation	0.0	1.0	False
1307.17	0.0	0Suff NW	4	1307170	ind	0.0	1.0	False
1308.137	0.0	2Suff w/o Lat.	22	1308137	variability	1.0	0.0	False
1309.771	0.0	0Suff w/ Lat.	1	1309771	exclude	1.0	0.0	False
1310.713	0.0	2Suff w/ Lat.	21	1310713	expressionism	1.0	1.0	True
1312.055	0.0	0Suff NW	4	1312055	sothod	0.0	1.0	False
1313.705	0.0	2Suff Composite	23	1313705	limitation	1.0	0.0	False
1314.797	0.0	1Suff w/o Lat.	12	1314797	justify	1.0	0.0	False
1315.848	0.0	1Suff RealStemNW	15	1315848	abolitate	0.0	1.0	False
1317.757	0.0	1Suff w/o Lat.	12	1317757	modulate	1.0	0.0	False
1318.874	0.0	0Suff w/o Lat.	2	1318874	end	1.0	0.0	False
1320.391	0.0	2Suff PseudoStemNW	24	1320391	byvrical	0.0	1.0	False
1321.391	0.0	2Suff RealStemNW	25	1321391	stylional	0.0	1.0	False
1322.992	0.0	1Suff w/ Lat.	11	1322992	objection	1.0	1.0	True
1324.55	0.0	0Suff w/o Lat.	2	1324550	fertile	1.0	1.0	True
1325.926	0.0	0Suff NW	4	1325926	creric	0.0	1.0	False
1327.085	0.0	0Suff NW	4	1327085	coatage	0.0	1.0	False
1328.068	0.0	0Suff w/o Lat.	2	1328068	symbol	1.0	0.0	False
1329.06	0.0	1Suff w/o Lat.	12	1329060	existence	1.0	0.0	False
1330.236	0.0	0Suff NW	4	1330236	cheher	0.0	1.0	False
1331.978	0.0	1Suff w/o Lat.	12	1331978	fearful	1.0	0.0	False
1333.328	0.0	1Suff RealStemNW	15	1333328	humanify	0.0	1.0	False
1334.354	0.0	2Suff w/o Lat.	22	1334354	suitably	1.0	0.0	False
1336.746	0.0	2Suff w/o Lat.	22	1336746	admirably	1.0	0.0	False
1337.788	0.0	0Suff NW	4	1337788	colliff	0.0	1.0	False
1338.863	0.0	2Suff w/o Lat.	22	1338863	modulation	1.0	0.0	False
1340.189	0.0	1Suff w/o Lat.	12	1340189	brutal	1.0		False
1342.573	0.0	0Suff w/o Lat.	2	1342573	civil	1.0		False
1344.973	0.0	0Suff NW	4	1344973	pums	0.0	0.0	True
1345.549	0.0	0Suff NW	4	1345549	elpard	0.0	1.0	False
1346.782	0.0	1Suff RealStemNW	15	1346782	civilist	0.0	1.0	False
1347.949	0.0	2Suff w/ Lat.	21	1347949	institutional	1.0	0.0	False
1349.175	0.0	0Suff NW	4	1349175	movect	0.0	1.0	False
1350.242	0.0	2Suff PseudoStemNW	24	1350242	trithfully	0.0	1.0	False
1351.384	0.0	2Suff w/o Lat.	22	1351384	helplessness	1.0	0.0	False
1352.801	0.0	0Suff w/ Lat.	1	1352801	effect	1.0	0.0	False
1353.885	0.0	2Suff w/o Lat.	22	1353885	variously	1.0	0.0	False
1355.277	0.0	1Suff w/o Lat.	12	1355277	regional	1.0	0.0	False
1356.485	0.0	2Suff w/o Lat.	22	1356485	prophetically	1.0	0.0	False
1357.627	0.0	1Suff RealStemNW	15	1357627	truthive	0.0	1.0	False
1358.894	0.0	2Suff PseudoStemNW	24	1358894	pogularization	0.0	1.0	False
1360.153	0.0	2Suff w/o Lat.	22	1360153	modernization	1.0	0.0	False
1361.487	0.0	2Suff w/o Lat.	22	1361487	usefulness	1.0	0.0	False
1363.287	0.0	2Suff w/o Lat.	22	1363287	selectivity	1.0	1.0	True
1365.33	0.0	0Suff w/o Lat.	2	1365330	confide	1.0	1.0	True
1366.397	0.0	2Suff w/o Lat.	22	1366397	spirituality	1.0	0.0	False
1367.705	0.0	2Suff PseudoStemNW	24	1367705	colliffively	0.0	1.0	False
1369.531	0.0	2Suff RealStemNW	25	1369531	opticical	0.0	1.0	False
1370.84	0.0	1Suff w/o Lat.	12	1370840	feverish	1.0	0.0	False
1371.915	0.0	1Suff RealStemNW	15	1371915	needable	0.0	0.0	True
1373.282	0.0	1Suff PseudoStemNW	14	1373282	coatageous	0.0	1.0	False
1374.583	0.0	1Suff w/o Lat.	12	1374583	admirable	1.0	0.0	False
1375.7	0.0	1Suff PseudoStemNW	14	1375700	ludsy	0.0	1.0	False
1376.7	0.0	2Suff PseudoStemNW	24	1376700	faicification	0.0	1.0	False
1378.175	0.0	0Suff NW	4	1378175	copperce	0.0	1.0	False
1379.167	0.0	0Suff w/ Lat.	1	1379167	compose	1.0	0.0	False
1380.284	0.0	2Suff RealStemNW	25	1380284	unifilessly	0.0	1.0	False
1381.618	0.0	2Suff w/o Lat.	22	1381618	vaccination	1.0	0.0	False
1382.752	0.0	1Suff w/o Lat.	12	1382752	cyclic	1.0	0.0	False
1384.127	0.0	2Suff RealStemNW	25	1384127	identally	0.0	1.0	False
1385.336	0.0	2Suff w/o Lat.	22	1385336	luckily	1.0	0.0	False
1386.353	0.0	1Suff w/o Lat.	12	1386353	dreadful	1.0	1.0	True
1387.42	0.0	2Suff RealStemNW	25	1387420	suitfulness	0.0	0.0	True
1389.337	0.0	0Suff NW	4	1389337	luds	0.0	1.0	False
1390.671	0.0	2Suff w/o Lat.	22	1390671	carelessly	1.0	1.0	True
1392.905	0.0	1Suff PseudoStemNW	14	1392905	arbument	0.0		False
1395.297	0.0	1Suff w/o Lat.	12	1395297	commercial	1.0	0.0	False
1396.589	0.0	0Suff w/o Lat.	2	1396589	passion	1.0	0.0	False
1397.556	0.0	1Suff w/o Lat.	12	1397556	noticeable	1.0	0.0	False
1398.707	0.0	2Suff Composite	23	1398707	unification	1.0	0.0	False
1399.94	0.0	2Suff w/o Lat.	22	1399940	methodically	1.0	0.0	False
1401.066	0.0	1Suff PseudoStemNW	14	1401066	arpive	0.0	1.0	False
1402.349	0.0	2Suff w/o Lat.	22	1402349	nationally	1.0	0.0	False
1404.133	0.0	1Suff w/ Lat.	11	1404133	presumable	1.0	0.0	False
1408.093	0.0	2Suff w/o Lat.	22	1408093	culturally	1.0	0.0	False
1409.277	0.0	2Suff w/o Lat.	22	1409277	significance	1.0	0.0	False
1410.369	0.0	1Suff PseudoStemNW	14	1410369	mocondary	0.0	1.0	False
1411.511	0.0	2Suff Composite	23	1411511	filtration	1.0	0.0	False
1412.728	0.0	2Suff PseudoStemNW	24	1412728	mocondarily	0.0	1.0	False
1414.637	0.0	0Suff NW	4	1414637	healt	0.0	0.0	True
1416.145	0.0	0Suff w/o Lat.	2	1416145	optic	1.0	0.0	False
1417.662	0.0	2Suff PseudoStemNW	24	1417662	moolurably	0.0	1.0	False
1418.771	0.0	2Suff w/ Lat.	21	1418771	expressionist	1.0	1.0	True
1420.755	0.0	1Suff w/o Lat.	12	1420755	needless	1.0	0.0	False
1422.706	0.0	1Suff w/o Lat.	12	1422706	dangerous	1.0	0.0	False
1424.298	0.0	1Suff w/o Lat.	12	1424298	powerful	1.0	0.0	False
1425.623	0.0	0Suff w/o Lat.	2	1425623	moment	1.0	0.0	False
1426.582	0.0	1Suff PseudoStemNW	14	1426582	londly	0.0	1.0	False
1427.666	0.0	2Suff w/o Lat.	22	1427666	ownership	1.0	0.0	False
1428.824	0.0	1Suff PseudoStemNW	14	1428824	indlidstive	0.0	1.0	False
1429.908	0.0	0Suff w/o Lat.	2	1429908	breath	1.0	0.0	False
1431.175	0.0	2Suff RealStemNW	25	1431175	flexfulness	0.0	1.0	False
1432.292	0.0	1Suff w/o Lat.	12	1432292	joyful	1.0	0.0	False
1433.376	0.0	1Suff w/ Lat.	11	1433376	effective	1.0	0.0	False
1434.443	0.0	2Suff w/o Lat.	22	1434443	loveliness	1.0	0.0	False
1435.601	0.0	2Suff w/o Lat.	22	1435601	selflessness	1.0	0.0	False
1436.827	0.0	2Suff PseudoStemNW	24	1436827	andezation	0.0	1.0	False
1437.919	0.0	2Suff PseudoStemNW	24	1437919	connurtivity	0.0	1.0	False
1439.436	0.0	0Suff NW	4	1439436	arp	0.0	1.0	False
1440.97	0.0	1Suff PseudoStemNW	14	1440970	cuppomary	0.0	1.0	False
1442.403	0.0	2Suff w/o Lat.	22	1442403	justifiable	1.0	0.0	False
1443.937	0.0	1Suff w/o Lat.	12	1443937	relentless	1.0	0.0	False
1445.046	0.0	0Suff NW	4	1445046	blead	0.0	0.0	True
1446.038	0.0	1Suff PseudoStemNW	14	1446038	onnention	0.0	0.0	True
1447.755	0.0	1Suff PseudoStemNW	14	1447755	lokely	0.0	1.0	False
1449.156	0.0	1Suff PseudoStemNW	14	1449156	ceantless	0.0		False
1451.556	0.0	1Suff w/o Lat.	12	1451556	spiritual	1.0	0.0	False
1452.698	0.0	0Suff NW	4	1452698	indolsty	0.0	1.0	False
1453.674	0.0	1Suff RealStemNW	15	1453674	effortable	0.0	1.0	False
1455.182	0.0	0Suff w/o Lat.	2	1455182	sign	1.0	0.0	False
1456.416	0.0	0Suff w/o Lat.	2	1456416	legal	1.0	0.0	False
1457.566	0.0	2Suff Composite	23	1457566	allegorical	1.0	0.0	False
1458.95	0.0	1Suff w/o Lat.	12	1458950	merciful	1.0	0.0	False
1460.192	0.0	2Suff w/o Lat.	22	1460192	nationality	1.0	0.0	False
1461.059	0.0	2Suff w/ Lat.	21	1461059	intentional	1.0	0.0	False
1461.909	0.0	0Suff NW	4	1461909	nolave	0.0	0.0	True
1462.693	0.0	1Suff w/o Lat.	12	1462693	lusty	1.0	0.0	False
1463.918	0.0	2Suff w/o Lat.	22	1463918	sensibly	1.0	0.0	False
1465.152	0.0	1Suff RealStemNW	15	1465152	drunkor	0.0	0.0	True
1466.452	0.0	1Suff w/o Lat.	12	1466452	comfortable	1.0	0.0	False
1467.519	0.0	1Suff w/o Lat.	12	1467519	measurable	1.0	0.0	False
1468.461	0.0	2Suff w/o Lat.	22	1468461	monumentally	1.0	0.0	False
1470.529	0.0	2Suff w/o Lat.	22	1470529	modernistic	1.0	0.0	False
1471.546	0.0	2Suff RealStemNW	25	1471546	victimilessly	0.0	1.0	False
1473.071	0.0	0Suff NW	4	1473071	navoun	0.0	1.0	False
1474.255	0.0	2Suff RealStemNW	25	1474255	alterlessly	0.0	1.0	False
1475.672	0.0	1Suff w/o Lat.	12	1475672	fortunate	1.0	1.0	True
1477.364	0.0	1Suff PseudoStemNW	14	1477364	rebuinal	0.0		False
1479.757	0.0	0Suff w/o Lat.	2	1479757	vary	1.0	0.0	False
1480.799	0.0	2Suff PseudoStemNW	24	1480799	cronitionally	0.0	1.0	False
1481.857	0.0	0Suff NW	4	1481857	murpy	0.0	1.0	False
1483.133	0.0	1Suff w/o Lat.	12	1483133	expansive	1.0	1.0	True
1484.191	0.0	2Suff w/o Lat.	22	1484191	heroically	1.0	1.0	True
1486.1	0.0	0Suff NW	4	1486100	loke	0.0	1.0	False
1487.151	0.0	0Suff NW	4	1487151	massien	0.0	1.0	False
1488.259	0.0	1Suff RealStemNW	15	1488259	confidious	0.0	1.0	False
1489.276	0.0	1Suff PseudoStemNW	14	1489276	traphetic	0.0	1.0	False
1490.568	0.0	2Suff PseudoStemNW	24	1490568	coyimally	0.0		False
1492.986	0.0	0Suff NW	4	1492986	fortord	0.0	1.0	False
1494.661	0.0	2Suff w/o Lat.	22	1494661	symbolically	1.0	0.0	False
1495.787	0.0	2Suff w/o Lat.	22	1495787	existential	1.0	0.0	False
1497.079	0.0	2Suff PseudoStemNW	24	1497079	hettlessly	0.0	1.0	False
1498.179	0.0	2Suff w/o Lat.	22	1498179	industrialist	1.0	0.0	False
1499.321	0.0	2Suff w/o Lat.	22	1499321	ceaselessly	1.0	0.0	False
1500.571	0.0	2Suff PseudoStemNW	24	1500571	kibsliness	0.0	1.0	False
1501.888	0.0	1Suff PseudoStemNW	14	1501888	lumsy	0.0	1.0	False
1503.022	0.0	1Suff w/o Lat.	12	1503022	modernize	1.0	0.0	False
1504.164	0.0	1Suff w/o Lat.	12	1504164	owner	1.0	1.0	True
1505.44	0.0	1Suff RealStemNW	15	1505440	modulion	0.0	1.0	False
1506.723	0.0	0Suff w/o Lat.	2	1506723	collect	1.0	0.0	False
1508.924	0.0	2Suff Composite	23	1508924	solidification	1.0		False
1511.316	0.0	2Suff PseudoStemNW	24	1511316	abadilionist	0.0	0.0	True
1512.508	0.0	0Suff NW	4	1512508	trith	0.0	1.0	False
1513.659	0.0	1Suff RealStemNW	15	1513659	mournive	0.0	1.0	False
1515.209	0.0	1Suff RealStemNW	15	1515209	falsant	0.0	1.0	False
1516.284	0.0	0Suff NW	4	1516284	victap	0.0	1.0	False
1517.468	0.0	2Suff RealStemNW	25	1517468	humanional	0.0	1.0	False
1518.919	0.0	0Suff w/o Lat.	2	1518919	attract	1.0	1.0	True
1519.927	0.0	0Suff w/o Lat.	2	1519927	nation	1.0	1.0	True
1521.236	0.0	2Suff w/o Lat.	22	1521236	joyously	1.0	0.0	False
1522.828	0.0	2Suff RealStemNW	25	1522828	embarkfully	0.0	1.0	False
1524.095	0.0	2Suff w/o Lat.	22	1524095	tactically	1.0	0.0	False
1525.587	0.0	0Suff w/o Lat.	2	1525587	compute	1.0	0.0	False
1526.588	0.0	0Suff w/o Lat.	2	1526588	culture	1.0	0.0	False
1527.505	0.0	2Suff PseudoStemNW	24	1527505	lurtilizer	0.0	1.0	False
1528.688	0.0	1Suff w/o Lat.	12	1528688	argument	1.0	0.0	False
1529.83	0.0	2Suff w/o Lat.	22	1529830	commercialism	1.0	0.0	False
1531.064	0.0	1Suff w/ Lat.	11	1531064	expression	1.0	0.0	False
1532.273	0.0	2Suff PseudoStemNW	24	1532273	comborition	0.0		False
1534.682	0.0	2Suff PseudoStemNW	24	1534682	efforniveness	0.0	1.0	False
1536.891	0.0	0Suff w/o Lat.	2	1536891	monument	1.0	0.0	False
1538.058	0.0	2Suff w/ Lat.	21	1538058	conductivity	1.0	1.0	True
1539.608	0.0	1Suff w/o Lat.	12	1539608	victimize	1.0	0.0	False
1541.792	0.0	2Suff PseudoStemNW	24	1541792	utiethation	0.0	1.0	False
1543.176	0.0	1Suff w/o Lat.	12	1543176	signify	1.0	0.0	False
1544.376	0.0	2Suff RealStemNW	25	1544376	useiveness	0.0	1.0	False
1545.502	0.0	1Suff w/ Lat.	11	1545502	objective	1.0	0.0	False
1546.444	0.0	1Suff w/o Lat.	12	1546444	active	1.0	0.0	False
1547.569	0.0	1Suff w/o Lat.	12	1547569	momentary	1.0	0.0	False
1548.836	0.0	2Suff RealStemNW	25	1548836	fooliveness	0.0	0.0	True
1550.187	0.0	0Suff NW	4	1550187	recrern	0.0	1.0	False
1551.47	0.0	1Suff w/o Lat.	12	1551470	selfless	1.0	0.0	False
1552.671	0.0	2Suff RealStemNW	25	1552671	inspiratality	0.0	1.0	False
1554.221	0.0	0Suff NW	4	1554221	gunder	0.0	1.0	False
1555.738	0.0	2Suff PseudoStemNW	24	1555738	jistification	0.0	1.0	False
