onset	duration	trial_type	value	sample	stimulus	is_word	response	correct
32.021	0.0	1Suff PseudoStemNW	14	32021	wrotify	0.0	1.0	False
33.046	0.0	0Suff w/o Lat.	2	33046	material	1.0	0.0	False
33.98	0.0	0Suff w/o Lat.	2	33980	man	1.0	0.0	False
34.88	0.0	2Suff RealStemNW	25	34880	affirmatfully	0.0	1.0	False
35.956	0.0	0Suff w/ Lat.	1	35956	instruct	1.0	0.0	False
36.964	0.0	1Suff PseudoStemNW	14	36964	hodeful	0.0	1.0	False
37.998	0.0	2Suff w/o Lat.	22	37998	relationship	1.0	0.0	False
38.956	0.0	2Suff w/o Lat.	22	38956	financially	1.0	0.0	False
40.207	0.0	2Suff RealStemNW	25	40207	impressliness	0.0	0.0	True
41.307	0.0	2Suff w/o Lat.	22	41307	regrettably	1.0	0.0	False
42.107	0.0	0Suff w/o Lat.	2	42107	thank	1.0	0.0	False
42.899	0.0	1Suff w/o Lat.	12	42899	addition	1.0	0.0	False
43.766	0.0	2Suff PseudoStemNW	24	43766	cossetitively	0.0	1.0	False
44.825	0.0	2Suff w/o Lat.	22	44825	educational	1.0	0.0	False
45.767	0.0	0Suff w/o Lat.	2	45767	edit	1.0	0.0	False
46.642	0.0	2Suff PseudoStemNW	24	46642	ictressionism	0.0	1.0	False
47.642	0.0	2Suff PseudoStemNW	24	47642	utelessness	0.0	1.0	False
48.659	0.0	2Suff PseudoStemNW	24	48659	peadership	0.0	1.0	False
49.793	0.0	1Suff PseudoStemNW	14	49793	rumical	0.0	1.0	False
50.735	0.0	1Suff PseudoStemNW	14	50735	distawksive	0.0	1.0	False
51.76	0.0	1Suff w/o Lat.	12	51760	reasonable	1.0	0.0	False
52.744	0.0	0Suff NW	4	52744	uspasion	0.0	1.0	False
53.686	0.0	0Suff NW	4	53686	nole	0.0	1.0	False
54.703	0.0	1Suff PseudoStemNW	14	54703	etilor	0.0	1.0	False
55.678	0.0	2Suff w/o Lat.	22	55678	soulfully	1.0	0.0	False
56.787	0.0	0Suff w/ Lat.	1	56787	concept	1.0	0.0	False
57.804	0.0	0Suff NW	4	57804	worch	0.0	1.0	False
58.796	0.0	2Suff PseudoStemNW	24	58796	mosimization	0.0	1.0	False
59.771	0.0	1Suff RealStemNW	15	59771	architectian	0.0	0.0	True
60.938	0.0	1Suff RealStemNW	15	60938	childory	0.0	1.0	False
62.147	0.0	1Suff PseudoStemNW	14	62147	fleepy	0.0	1.0	False
63.014	0.0	2Suff PseudoStemNW	24	63014	prodfessively	0.0	1.0	False
64.164	0.0	0Suff NW	4	64164	manhet	0.0	1.0	False
65.106	0.0	1Suff RealStemNW	15	65106	restable	0.0	1.0	False
65.923	0.0	0Suff NW	4	65923	gulbs	0.0	1.0	False
66.807	0.0	1Suff w/ Lat.	11	66807	projection	1.0	0.0	False
67.974	0.0	2Suff PseudoStemNW	24	67974	diructorship	0.0	1.0	False
68.966	0.0	1Suff w/o Lat.	12	68966	accidental	1.0	0.0	False
69.941	0.0	2Suff w/o Lat.	22	69941	polarity	1.0	1.0	True
70.95	0.0	1Suff RealStemNW	15	70950	deadic	0.0	0.0	True
71.733	0.0	0Suff NW	4	71733	rerard	0.0	1.0	False
72.867	0.0	1Suff w/o Lat.	12	72867	painless	1.0	0.0	False
73.926	0.0	0Suff NW	4	73926	betiece	0.0	1.0	False
74.901	0.0	1Suff w/o Lat.	12	74901	outward	1.0	0.0	False
75.993	0.0	0Suff NW	4	75993	mosime	0.0	1.0	False
77.027	0.0	2Suff w/ Lat.	21	77027	affectionate	1.0	0.0	False
78.385	0.0	2Suff PseudoStemNW	24	78385	eetwardly	0.0	1.0	False
79.352	0.0	2Suff Composite	23	79352	vexation	1.0	1.0	True
80.486	0.0	2Suff RealStemNW	25	80486	notural	0.0	1.0	False
81.536	0.0	2Suff w/ Lat.	21	81536	impressionism	1.0	0.0	False
82.528	0.0	0Suff w/o Lat.	2	82528	margin	1.0	0.0	False
83.345	0.0	2Suff w/o Lat.	22	83345	fatalist	1.0	1.0	True
84.429	0.0	2Suff RealStemNW	25	84429	globical	0.0	0.0	True
85.613	0.0	2Suff w/o Lat.	22	85613	commentator	1.0	0.0	False
86.838	0.0	2Suff PseudoStemNW	24	86838	mistilenly	0.0	1.0	False
87.813	0.0	2Suff w/o Lat.	22	87813	immunization	1.0	0.0	False
89.005	0.0	0Suff NW	4	89005	imoat	0.0	1.0	False
90.031	0.0	2Suff w/o Lat.	22	90031	originally	1.0	0.0	False
90.998	0.0	1Suff PseudoStemNW	14	90998	arful	0.0	1.0	False
92.031	0.0	1Suff PseudoStemNW	14	92031	diruction	0.0	0.0	True
93.023	0.0	2Suff PseudoStemNW	24	93023	watefulness	0.0	0.0	True
93.998	0.0	0Suff w/o Lat.	2	93998	fate	1.0	1.0	True
95.449	0.0	1Suff w/ Lat.	11	95449	mistaken	1.0	0.0	False
96.674	0.0	2Suff w/o Lat.	22	96674	realistic	1.0	0.0	False
97.666	0.0	1Suff RealStemNW	15	97666	peaceive	0.0	1.0	False
99.1	0.0	2Suff PseudoStemNW	24	99100	segnonistic	0.0	1.0	False
100.225	0.0	2Suff RealStemNW	25	100225	revitalilessly	0.0	1.0	False
101.384	0.0	2Suff RealStemNW	25	101384	editionate	0.0	1.0	False
103.093	0.0	0Suff NW	4	103093	snought	0.0	1.0	False
104.16	0.0	2Suff w/o Lat.	22	104160	guiltiness	1.0	1.0	True
105.652	0.0	1Suff w/o Lat.	12	105652	isolation	1.0	0.0	False
106.661	0.0	1Suff PseudoStemNW	14	106661	thiendly	0.0	1.0	False
107.961	0.0	2Suff w/o Lat.	22	107961	relativism	1.0	0.0	False
108.845	0.0	2Suff w/o Lat.	22	108845	familiarize	1.0	0.0	False
109.953	0.0	0Suff w/o Lat.	2	109953	mobile	1.0	0.0	False
110.82	0.0	1Suff w/o Lat.	12	110820	successful	1.0	0.0	False
111.687	0.0	2Suff RealStemNW	25	111687	agreeally	0.0	0.0	True
112.838	0.0	2Suff RealStemNW	25	112838	guardifiance	0.0	1.0	False
114.188	0.0	0Suff NW	4	114188	tipe	0.0	1.0	False
115.822	0.0	1Suff w/o Lat.	12	115822	validate	1.0	0.0	False
117.089	0.0	2Suff RealStemNW	25	117089	affectorship	0.0	1.0	False
118.473	0.0	2Suff PseudoStemNW	24	118473	essoilially	0.0	1.0	False
119.506	0.0	1Suff w/ Lat.	11	119506	extensive	1.0	0.0	False
120.548	0.0	0Suff NW	4	120548	fars	0.0	1.0	False
121.632	0.0	1Suff w/o Lat.	12	121632	immunize	1.0	0.0	False
122.641	0.0	2Suff PseudoStemNW	24	122641	paftially	0.0	1.0	False
123.683	0.0	1Suff w/o Lat.	12	123683	soulful	1.0	0.0	False
124.975	0.0	2Suff RealStemNW	25	124975	substanceical	0.0	1.0	False
126.167	0.0	1Suff w/o Lat.	12	126167	confession	1.0	0.0	False
127.217	0.0	2Suff w/o Lat.	22	127217	considerably	1.0	0.0	False
128.234	0.0	0Suff NW	4	128234	stoteld	0.0	1.0	False
129.251	0.0	1Suff RealStemNW	15	129251	designion	0.0	1.0	False
130.568	0.0	0Suff NW	4	130568	meabon	0.0	1.0	False
131.568	0.0	2Suff w/o Lat.	22	131568	confessional	1.0	0.0	False
132.644	0.0	2Suff w/o Lat.	22	132644	directional	1.0	0.0	False
133.594	0.0	1Suff PseudoStemNW	14	133594	urmerly	0.0	1.0	False
134.503	0.0	2Suff PseudoStemNW	24	134503	denboderation	0.0	1.0	False
135.82	0.0	2Suff PseudoStemNW	24	135820	posicarization	0.0	1.0	False
136.953	0.0	2Suff RealStemNW	25	136953	dramationist	0.0	0.0	True
138.02	0.0	2Suff RealStemNW	25	138020	governancial	0.0	0.0	True
139.071	0.0	2Suff PseudoStemNW	24	139071	onnensively	0.0	1.0	False
140.204	0.0	1Suff w/o Lat.	12	140204	racial	1.0	0.0	False
141.18	0.0	0Suff w/o Lat.	2	141180	assassin	1.0	0.0	False
142.397	0.0	0Suff NW	4	142397	devesug	0.0	1.0	False
143.38	0.0	2Suff PseudoStemNW	24	143380	imoatization	0.0	1.0	False
144.564	0.0	0Suff w/o Lat.	2	144564	educate	1.0	0.0	False
145.556	0.0	2Suff PseudoStemNW	24	145556	orifadator	0.0	1.0	False
146.506	0.0	0Suff NW	4	146506	ais	0.0	1.0	False
147.573	0.0	0Suff NW	4	147573	eet	0.0	1.0	False
148.524	0.0	2Suff RealStemNW	25	148524	painively	0.0	0.0	True
149.674	0.0	0Suff w/o Lat.	2	149674	differ	1.0	0.0	False
150.766	0.0	0Suff w/o Lat.	2	150766	note	1.0	0.0	False
151.708	0.0	0Suff NW	4	151708	eant	0.0	1.0	False
152.65	0.0	2Suff RealStemNW	25	152650	awively	0.0	1.0	False
153.658	0.0	2Suff w/o Lat.	22	153658	distinctively	1.0	0.0	False
154.617	0.0	2Suff w/o Lat.	22	154617	relational	1.0	0.0	False
155.526	0.0	2Suff RealStemNW	25	155526	editerize	0.0	1.0	False
156.559	0.0	0Suff w/o Lat.	2	156559	magnet	1.0	0.0	False
157.651	0.0	2Suff PseudoStemNW	24	157651	concolerably	0.0	1.0	False
160.069	0.0	0Suff w/o Lat.	2	160069	pole	1.0	0.0	False
160.944	0.0	0Suff w/o Lat.	2	160944	architect	1.0	0.0	False
161.794	0.0	0Suff NW	4	161794	desalk	0.0	1.0	False
162.778	0.0	0Suff NW	4	162778	chier	0.0	1.0	False
163.728	0.0	2Suff w/o Lat.	22	163728	mobilization	1.0	0.0	False
164.704	0.0	2Suff w/o Lat.	22	164704	transitional	1.0	0.0	False
165.57	0.0	0Suff w/o Lat.	2	165570	part	1.0	0.0	False
166.446	0.0	2Suff RealStemNW	25	166446	persuasfully	0.0	0.0	True
167.438	0.0	1Suff RealStemNW	15	167438	realify	0.0	0.0	True
168.371	0.0	2Suff RealStemNW	25	168371	decisishness	0.0	1.0	False
169.322	0.0	0Suff w/o Lat.	2	169322	origin	1.0	0.0	False
170.18	0.0	2Suff RealStemNW	25	170180	categorally	0.0	1.0	False
171.539	0.0	0Suff w/o Lat.	2	171539	function	1.0	1.0	True
172.423	0.0	2Suff w/ Lat.	21	172423	instructional	1.0	0.0	False
173.34	0.0	0Suff NW	4	173340	deabon	0.0	0.0	True
174.215	0.0	1Suff RealStemNW	15	174215	instructate	0.0	0.0	True
175.048	0.0	2Suff RealStemNW	25	175048	confessality	0.0	0.0	True
175.874	0.0	1Suff RealStemNW	15	175874	eany	0.0	1.0	False
176.924	0.0	2Suff RealStemNW	25	176924	familierage	0.0	1.0	False
177.999	0.0	2Suff RealStemNW	25	177999	fasticly	0.0	1.0	False
179.0	0.0	2Suff w/o Lat.	22	179000	decorative	1.0	0.0	False
179.992	0.0	1Suff w/o Lat.	12	179992	editor	1.0	0.0	False
180.9	0.0	0Suff w/ Lat.	1	180900	affirm	1.0	0.0	False
181.792	0.0	0Suff NW	4	181792	girern	0.0	1.0	False
182.959	0.0	2Suff RealStemNW	25	182959	marginical	0.0	0.0	True
183.984	0.0	1Suff RealStemNW	15	183984	impressate	0.0	1.0	False
185.935	0.0	0Suff w/o Lat.	2	185935	ethic	1.0	0.0	False
186.794	0.0	2Suff Composite	23	186794	allegation	1.0	0.0	False
187.786	0.0	0Suff NW	4	187786	fale	0.0	0.0	True
188.719	0.0	0Suff w/o Lat.	2	188719	myth	1.0	0.0	False
189.503	0.0	1Suff w/o Lat.	12	189503	manly	1.0	0.0	False
190.403	0.0	2Suff PseudoStemNW	24	190403	concuchualize	0.0	1.0	False
191.503	0.0	0Suff w/o Lat.	2	191503	finance	1.0	0.0	False
192.412	0.0	2Suff RealStemNW	25	192412	decisfully	0.0	0.0	True
193.537	0.0	1Suff PseudoStemNW	14	193537	farsen	0.0	1.0	False
194.746	0.0	0Suff NW	4	194746	steadth	0.0	0.0	True
195.905	0.0	1Suff PseudoStemNW	14	195905	cunerogial	0.0	1.0	False
196.98	0.0	1Suff PseudoStemNW	14	196980	grameful	0.0	1.0	False
198.406	0.0	2Suff w/o Lat.	22	198406	frightfully	1.0	0.0	False
199.589	0.0	1Suff PseudoStemNW	14	199589	wrotious	0.0	1.0	False
200.59	0.0	1Suff RealStemNW	15	200590	familior	0.0	1.0	False
201.707	0.0	2Suff w/o Lat.	22	201707	sleepily	1.0	0.0	False
202.882	0.0	1Suff PseudoStemNW	14	202882	affallion	0.0	1.0	False
204.091	0.0	0Suff NW	4	204091	pote	0.0	0.0	True
204.941	0.0	2Suff PseudoStemNW	24	204941	affallation	0.0	0.0	True
205.775	0.0	2Suff PseudoStemNW	24	205775	cunerogially	0.0	1.0	False
207.125	0.0	2Suff w/o Lat.	22	207125	gracefully	1.0	1.0	True
208.134	0.0	2Suff w/o Lat.	22	208134	functionally	1.0	0.0	False
208.909	0.0	2Suff PseudoStemNW	24	208909	degorative	0.0	1.0	False
210.009	0.0	2Suff RealStemNW	25	210009	predictator	0.0	0.0	True
211.034	0.0	0Suff NW	4	211034	coppent	0.0	1.0	False
212.485	0.0	1Suff PseudoStemNW	14	212485	goulty	0.0	1.0	False
213.385	0.0	0Suff NW	4	213385	cunerogy	0.0	1.0	False
214.394	0.0	2Suff w/ Lat.	21	214394	subjectively	1.0	0.0	False
215.586	0.0	2Suff PseudoStemNW	24	215586	rerational	0.0	1.0	False
216.636	0.0	1Suff w/o Lat.	12	216636	relation	1.0	0.0	False
217.62	0.0	2Suff PseudoStemNW	24	217620	squasification	0.0	1.0	False
218.653	0.0	1Suff RealStemNW	15	218653	magnetal	0.0	1.0	False
220.146	0.0	2Suff RealStemNW	25	220146	periodally	0.0	0.0	True
221.171	0.0	2Suff w/o Lat.	22	221171	successfully	1.0	0.0	False
222.071	0.0	0Suff NW	4	222071	analk	0.0	1.0	False
223.047	0.0	1Suff RealStemNW	15	223047	basly	0.0	1.0	False
224.122	0.0	0Suff w/o Lat.	2	224122	family	1.0	1.0	True
224.947	0.0	1Suff w/ Lat.	11	224947	available	1.0	0.0	False
225.914	0.0	1Suff w/o Lat.	12	225914	friendly	1.0	0.0	False
226.881	0.0	0Suff w/o Lat.	2	226881	rhythm	1.0	0.0	False
227.848	0.0	2Suff w/ Lat.	21	227848	impressionist	1.0	0.0	False
229.182	0.0	2Suff PseudoStemNW	24	229182	stitilization	0.0	1.0	False
230.307	0.0	2Suff PseudoStemNW	24	230307	devesugmental	0.0	1.0	False
231.399	0.0	2Suff w/o Lat.	22	231399	decorator	1.0	1.0	True
232.833	0.0	2Suff RealStemNW	25	232833	forgetiveness	0.0	0.0	True
233.841	0.0	2Suff PseudoStemNW	24	233841	potarity	0.0	1.0	False
234.925	0.0	0Suff NW	4	234925	perburve	0.0	1.0	False
235.909	0.0	2Suff PseudoStemNW	24	235909	snoughtlessly	0.0	1.0	False
236.934	0.0	2Suff w/o Lat.	22	236934	designation	1.0	0.0	False
237.909	0.0	1Suff PseudoStemNW	14	237909	preguctable	0.0	1.0	False
239.076	0.0	2Suff RealStemNW	25	239076	soulively	0.0	1.0	False
240.085	0.0	1Suff RealStemNW	15	240085	marginic	0.0	1.0	False
241.102	0.0	2Suff w/o Lat.	22	241102	furiously	1.0	0.0	False
242.036	0.0	0Suff w/o Lat.	2	242036	drama	1.0	0.0	False
243.036	0.0	0Suff NW	4	243036	eltene	0.0	1.0	False
244.611	0.0	2Suff w/o Lat.	22	244611	gloriously	1.0	0.0	False
245.453	0.0	1Suff PseudoStemNW	14	245453	devadive	0.0	1.0	False
246.829	0.0	0Suff w/o Lat.	2	246829	ease	1.0	0.0	False
247.746	0.0	2Suff PseudoStemNW	24	247746	pafleurization	0.0	1.0	False
248.663	0.0	1Suff RealStemNW	15	248663	poetal	0.0	1.0	False
249.638	0.0	2Suff PseudoStemNW	24	249638	detismsfully	0.0	1.0	False
250.647	0.0	0Suff NW	4	250647	pask	0.0	1.0	False
251.58	0.0	2Suff w/o Lat.	22	251580	substantially	1.0	0.0	False
252.639	0.0	0Suff w/ Lat.	1	252639	extend	1.0	0.0	False
253.573	0.0	0Suff w/o Lat.	2	253573	out	1.0	0.0	False
254.448	0.0	2Suff w/o Lat.	22	254448	profitably	1.0	0.0	False
255.506	0.0	0Suff w/o Lat.	2	255506	add	1.0	0.0	False
256.415	0.0	1Suff PseudoStemNW	14	256415	worchless	0.0	1.0	False
257.44	0.0	2Suff RealStemNW	25	257440	manionist	0.0	1.0	False
258.466	0.0	1Suff RealStemNW	15	258466	differify	0.0	1.0	False
259.666	0.0	0Suff NW	4	259666	ewsib	0.0	1.0	False
260.641	0.0	2Suff PseudoStemNW	24	260641	paftiality	0.0	1.0	False
261.658	0.0	2Suff PseudoStemNW	24	261658	chirdishness	0.0	1.0	False
262.834	0.0	2Suff w/o Lat.	22	262834	painfully	1.0	0.0	False
263.809	0.0	1Suff RealStemNW	15	263809	hopeable	0.0	0.0	True
264.959	0.0	0Suff NW	4	264959	prowert	0.0	1.0	False
266.235	0.0	0Suff w/o Lat.	2	266235	fright	1.0	0.0	False
267.327	0.0	1Suff w/o Lat.	12	267327	wakeful	1.0	1.0	True
268.602	0.0	2Suff RealStemNW	25	268602	aimiously	0.0	1.0	False
270.128	0.0	2Suff RealStemNW	25	270128	transitality	0.0	0.0	True
271.553	0.0	2Suff w/o Lat.	22	271553	racially	1.0	0.0	False
272.445	0.0	1Suff w/o Lat.	12	272445	functional	1.0	0.0	False
273.279	0.0	2Suff RealStemNW	25	273279	sleepery	0.0	1.0	False
274.454	0.0	2Suff RealStemNW	25	274454	hopeively	0.0	0.0	True
275.413	0.0	0Suff w/o Lat.	2	275413	success	1.0	0.0	False
276.188	0.0	2Suff PseudoStemNW	24	276188	artlitackural	0.0	1.0	False
277.222	0.0	0Suff w/o Lat.	2	277222	develop	1.0	0.0	False
278.322	0.0	0Suff w/o Lat.	2	278322	peace	1.0	0.0	False
279.222	0.0	2Suff w/o Lat.	22	279222	decisiveness	1.0	0.0	False
280.264	0.0	0Suff w/o Lat.	2	280264	season	1.0	0.0	False
281.148	0.0	0Suff NW	4	281148	mowth	0.0	0.0	True
282.123	0.0	2Suff RealStemNW	25	282123	isolatmental	0.0	1.0	False
283.132	0.0	1Suff RealStemNW	15	283132	directar	0.0	1.0	False
285.541	0.0	2Suff PseudoStemNW	24	285541	cidlical	0.0	1.0	False
286.541	0.0	0Suff w/o Lat.	2	286541	fast	1.0	0.0	False
287.325	0.0	0Suff w/ Lat.	1	287325	avail	1.0	0.0	False
288.333	0.0	1Suff PseudoStemNW	14	288333	imoatist	0.0	1.0	False
289.342	0.0	2Suff w/o Lat.	22	289342	stealthily	1.0	1.0	True
290.459	0.0	1Suff PseudoStemNW	14	290459	orifadate	0.0	1.0	False
291.368	0.0	0Suff NW	4	291368	mistile	0.0	1.0	False
292.726	0.0	2Suff PseudoStemNW	24	292726	orifadality	0.0	1.0	False
293.543	0.0	2Suff Composite	23	293543	biblical	1.0	0.0	False
294.485	0.0	0Suff w/o Lat.	2	294485	grace	1.0	0.0	False
295.335	0.0	0Suff w/o Lat.	2	295335	order	1.0	0.0	False
296.169	0.0	1Suff PseudoStemNW	14	296169	eseretion	0.0	1.0	False
297.094	0.0	0Suff w/o Lat.	2	297094	valid	1.0	0.0	False
298.02	0.0	2Suff PseudoStemNW	24	298020	carbisalistic	0.0	1.0	False
298.92	0.0	1Suff w/o Lat.	12	298920	mythical	1.0	0.0	False
299.787	0.0	2Suff w/o Lat.	22	299787	usefully	1.0	0.0	False
300.754	0.0	1Suff w/o Lat.	12	300754	different	1.0	0.0	False
301.637	0.0	0Suff w/o Lat.	2	301637	consider	1.0	0.0	False
302.496	0.0	0Suff NW	4	302496	finiles	0.0	1.0	False
303.73	0.0	1Suff w/o Lat.	12	303730	difference	1.0	0.0	False
304.88	0.0	1Suff w/o Lat.	12	304880	assassinate	1.0	0.0	False
305.822	0.0	1Suff RealStemNW	15	305822	persuasful	0.0	1.0	False
306.947	0.0	2Suff PseudoStemNW	24	306947	nerbously	0.0	1.0	False
308.056	0.0	1Suff w/o Lat.	12	308056	rhythmic	1.0	0.0	False
309.215	0.0	1Suff w/o Lat.	12	309215	soften	1.0	0.0	False
310.098	0.0	2Suff PseudoStemNW	24	310098	prebitably	0.0	1.0	False
311.149	0.0	2Suff w/o Lat.	22	311149	healthily	1.0	0.0	False
312.416	0.0	2Suff w/o Lat.	22	312416	polarize	1.0	0.0	False
313.683	0.0	0Suff NW	4	313683	fleep	0.0	1.0	False
314.825	0.0	0Suff w/o Lat.	2	314825	aim	1.0	0.0	False
315.808	0.0	1Suff PseudoStemNW	14	315808	reration	0.0	1.0	False
316.85	0.0	2Suff w/o Lat.	22	316850	poetical	1.0	0.0	False
318.226	0.0	1Suff RealStemNW	15	318226	periodal	0.0	0.0	True
319.151	0.0	1Suff w/o Lat.	12	319151	competitive	1.0	0.0	False
320.001	0.0	2Suff PseudoStemNW	24	320001	pipplification	0.0	1.0	False
321.052	0.0	2Suff w/o Lat.	22	321052	persuasively	1.0	0.0	False
322.169	0.0	2Suff RealStemNW	25	322169	glorifilessly	0.0	0.0	True
323.344	0.0	0Suff w/o Lat.	2	323344	friend	1.0	0.0	False
324.203	0.0	2Suff Composite	23	324203	perturbation	1.0	1.0	True
325.32	0.0	2Suff Composite	23	325320	futuristic	1.0	0.0	False
326.537	0.0	0Suff NW	4	326537	subplence	0.0	1.0	False
327.57	0.0	1Suff w/o Lat.	12	327570	execution	1.0	0.0	False
328.554	0.0	1Suff PseudoStemNW	14	328554	uspasional	0.0	1.0	False
329.554	0.0	2Suff Composite	23	329554	simplification	1.0	0.0	False
330.638	0.0	0Suff w/o Lat.	2	330638	distinct	1.0	0.0	False
331.513	0.0	1Suff RealStemNW	15	331513	considerion	0.0	0.0	True
332.422	0.0	1Suff w/o Lat.	12	332422	fasten	1.0	0.0	False
333.264	0.0	0Suff w/o Lat.	2	333264	hero	1.0	0.0	False
334.039	0.0	1Suff PseudoStemNW	14	334039	snightful	0.0	1.0	False
335.131	0.0	0Suff NW	4	335131	instrove	0.0	1.0	False
336.215	0.0	0Suff w/o Lat.	2	336215	forget	1.0	0.0	False
337.232	0.0	1Suff PseudoStemNW	14	337232	ramial	0.0	1.0	False
338.182	0.0	1Suff w/o Lat.	12	338182	triumphant	1.0	0.0	False
339.374	0.0	0Suff NW	4	339374	prebit	0.0	1.0	False
340.541	0.0	2Suff RealStemNW	25	340541	isolatliness	0.0	1.0	False
341.808	0.0	0Suff w/ Lat.	1	341808	project	1.0	0.0	False
342.758	0.0	1Suff w/o Lat.	12	342758	sterilize	1.0	0.0	False
344.017	0.0	0Suff w/ Lat.	1	344017	exhibit	1.0	0.0	False
344.917	0.0	2Suff PseudoStemNW	24	344917	worchlessness	0.0	1.0	False
345.926	0.0	0Suff NW	4	345926	falget	0.0	1.0	False
346.918	0.0	1Suff w/o Lat.	12	346918	financial	1.0	0.0	False
347.893	0.0	1Suff PseudoStemNW	14	347893	vimidate	0.0	1.0	False
349.135	0.0	0Suff NW	4	349135	ippune	0.0	1.0	False
350.152	0.0	1Suff w/o Lat.	12	350152	sleepy	1.0	0.0	False
351.194	0.0	2Suff w/o Lat.	22	351194	wakefulness	1.0	0.0	False
352.203	0.0	0Suff NW	4	352203	orifad	0.0	1.0	False
353.195	0.0	0Suff NW	4	353195	thiend	0.0	1.0	False
354.187	0.0	2Suff w/o Lat.	22	354187	globally	1.0	0.0	False
355.154	0.0	0Suff w/o Lat.	2	355154	time	1.0	0.0	False
355.954	0.0	0Suff w/o Lat.	2	355954	delight	1.0	0.0	False
356.904	0.0	2Suff w/o Lat.	22	356904	peacefully	1.0	0.0	False
357.771	0.0	0Suff w/o Lat.	2	357771	real	1.0	0.0	False
358.572	0.0	2Suff PseudoStemNW	24	358572	lenctionally	0.0	1.0	False
359.922	0.0	0Suff NW	4	359922	corzess	0.0	1.0	False
360.889	0.0	2Suff w/o Lat.	22	360889	uselessness	1.0	0.0	False
361.831	0.0	1Suff w/o Lat.	12	361831	designate	1.0	0.0	False
362.773	0.0	0Suff NW	4	362773	hyth	0.0	1.0	False
363.681	0.0	2Suff RealStemNW	25	363681	believator	0.0	1.0	False
364.69	0.0	1Suff w/ Lat.	11	364690	conceptual	1.0	0.0	False
365.724	0.0	0Suff NW	4	365724	helily	0.0	1.0	False
366.699	0.0	0Suff NW	4	366699	glibe	0.0	0.0	True
367.533	0.0	1Suff RealStemNW	15	367533	educatate	0.0	0.0	True
368.425	0.0	1Suff w/o Lat.	12	368425	ethical	1.0	0.0	False
369.25	0.0	0Suff NW	4	369250	stitile	0.0	1.0	False
370.208	0.0	2Suff w/o Lat.	22	370208	isolationist	1.0	0.0	False
371.317	0.0	2Suff w/o Lat.	22	371317	restlessness	1.0	0.0	False
372.601	0.0	0Suff w/o Lat.	2	372601	speed	1.0	0.0	False
373.434	0.0	1Suff w/o Lat.	12	373434	relative	1.0	0.0	False
374.21	0.0	1Suff w/o Lat.	12	374210	director	1.0	0.0	False
375.027	0.0	0Suff NW	4	375027	restit	0.0	1.0	False
375.96	0.0	2Suff w/o Lat.	22	375960	musically	1.0	0.0	False
376.877	0.0	2Suff w/o Lat.	22	376877	leaderless	1.0	0.0	False
378.494	0.0	2Suff PseudoStemNW	24	378494	inshemmation	0.0	1.0	False
379.503	0.0	0Suff w/o Lat.	2	379503	statistic	1.0	0.0	False
380.312	0.0	1Suff w/ Lat.	11	380312	impression	1.0	0.0	False
381.212	0.0	1Suff w/o Lat.	12	381212	guilty	1.0	0.0	False
382.004	0.0	0Suff NW	4	382004	chansot	0.0	1.0	False
383.037	0.0	0Suff w/o Lat.	2	383037	trivia	1.0	1.0	True
383.996	0.0	1Suff RealStemNW	15	383996	isolatate	0.0	0.0	True
384.763	0.0	1Suff w/o Lat.	12	384763	speedy	1.0	0.0	False
385.547	0.0	2Suff w/o Lat.	22	385547	ethically	1.0	0.0	False
386.413	0.0	2Suff PseudoStemNW	24	386413	pinonical	0.0	1.0	False
387.489	0.0	0Suff w/o Lat.	2	387489	transit	1.0	0.0	False
388.556	0.0	2Suff w/o Lat.	22	388556	editorial	1.0	0.0	False
389.364	0.0	2Suff RealStemNW	25	389364	notifilessly	0.0	1.0	False
390.665	0.0	0Suff w/o Lat.	2	390665	govern	1.0	0.0	False
391.457	0.0	1Suff w/o Lat.	12	391457	occasional	1.0	0.0	False
392.357	0.0	0Suff NW	4	392357	manfin	0.0	0.0	True
393.124	0.0	0Suff NW	4	393124	sork	0.0	0.0	True
393.916	0.0	2Suff w/o Lat.	22	393916	hopelessness	1.0	0.0	False
394.774	0.0	1Suff w/o Lat.	12	394774	restless	1.0	1.0	True
395.625	0.0	2Suff RealStemNW	25	395625	assassinfully	0.0	0.0	True
396.367	0.0	1Suff w/o Lat.	12	396367	distinctive	1.0	0.0	False
397.292	0.0	2Suff w/o Lat.	22	397292	manliness	1.0	0.0	False
398.3	0.0	2Suff RealStemNW	25	398300	realional	0.0	1.0	False
399.593	0.0	0Suff NW	4	399593	isotent	0.0	0.0	True
400.726	0.0	0Suff NW	4	400726	coul	0.0	1.0	False
401.793	0.0	2Suff RealStemNW	25	401793	conceptuical	0.0	1.0	False
403.469	0.0	1Suff RealStemNW	15	403469	assassinion	0.0	0.0	True
410.137	0.0	1Suff w/o Lat.	12	410137	original	1.0	0.0	False
411.013	0.0	1Suff RealStemNW	15	411013	provocatful	0.0	1.0	False
411.955	0.0	2Suff w/o Lat.	22	411955	reasonably	1.0	0.0	False
412.888	0.0	2Suff w/o Lat.	22	412888	provocatively	1.0	1.0	True
413.997	0.0	2Suff w/o Lat.	22	413997	faithfully	1.0	0.0	False
414.789	0.0	0Suff w/o Lat.	2	414789	stealth	1.0	0.0	False
415.547	0.0	2Suff w/o Lat.	22	415547	familiarity	1.0	0.0	False
416.898	0.0	2Suff w/o Lat.	22	416898	delightfully	1.0	0.0	False
417.998	0.0	2Suff PseudoStemNW	24	417998	thackener	0.0	1.0	False
419.082	0.0	2Suff w/o Lat.	22	419082	occasionally	1.0	0.0	False
420.149	0.0	2Suff w/o Lat.	22	420149	thoughtfully	1.0	0.0	False
420.941	0.0	1Suff PseudoStemNW	14	420941	sorken	0.0	1.0	False
421.908	0.0	2Suff w/o Lat.	22	421908	trivialize	1.0	0.0	False
423.35	0.0	1Suff w/o Lat.	12	423350	mobilize	1.0	0.0	False
424.258	0.0	2Suff RealStemNW	25	424258	peaceively	0.0	0.0	True
425.25	0.0	2Suff w/o Lat.	22	425250	differential	1.0	0.0	False
426.201	0.0	2Suff w/o Lat.	22	426201	rhythmically	1.0	0.0	False
427.401	0.0	0Suff w/o Lat.	2	427401	design	1.0	0.0	False
428.293	0.0	2Suff PseudoStemNW	24	428293	vimidation	0.0	1.0	False
429.535	0.0	0Suff w/o Lat.	2	429535	comment	1.0	0.0	False
430.419	0.0	1Suff w/o Lat.	12	430419	worthless	1.0	0.0	False
431.302	0.0	1Suff w/o Lat.	12	431302	originate	1.0	0.0	False
432.103	0.0	1Suff w/o Lat.	12	432103	exhaustive	1.0	0.0	False
432.936	0.0	0Suff w/o Lat.	2	432936	confess	1.0	0.0	False
433.753	0.0	2Suff PseudoStemNW	24	433753	miccessfully	0.0	1.0	False
434.853	0.0	2Suff RealStemNW	25	434853	differalism	0.0	0.0	True
436.004	0.0	1Suff PseudoStemNW	14	436004	glibal	0.0	0.0	True
436.854	0.0	0Suff NW	4	436854	devade	0.0	0.0	True
437.738	0.0	2Suff RealStemNW	25	437738	relatifiable	0.0	1.0	False
439.063	0.0	0Suff NW	4	439063	gloo	0.0	0.0	True
439.98	0.0	0Suff w/ Lat.	1	439980	affect	1.0	0.0	False
440.764	0.0	1Suff w/o Lat.	12	440764	gracious	1.0	0.0	False
441.831	0.0	1Suff w/o Lat.	12	441831	commentate	1.0	0.0	False
443.014	0.0	2Suff w/o Lat.	22	443014	assassination	1.0	0.0	False
443.956	0.0	1Suff w/o Lat.	12	443956	trivial	1.0	0.0	False
444.806	0.0	2Suff w/o Lat.	22	444806	differentiate	1.0	0.0	False
445.657	0.0	1Suff w/o Lat.	12	445657	forgetful	1.0	0.0	False
446.507	0.0	1Suff PseudoStemNW	14	446507	essoilial	0.0	1.0	False
447.524	0.0	2Suff w/o Lat.	22	447524	nervousness	1.0	0.0	False
448.616	0.0	2Suff w/o Lat.	22	448616	decisively	1.0	0.0	False
449.591	0.0	2Suff w/o Lat.	22	449591	thoughtlessly	1.0	0.0	False
450.458	0.0	2Suff w/o Lat.	22	450458	timeliness	1.0	0.0	False
451.308	0.0	1Suff w/o Lat.	12	451308	provocative	1.0	0.0	False
452.434	0.0	0Suff w/o Lat.	2	452434	guard	1.0	0.0	False
453.259	0.0	2Suff RealStemNW	25	453259	cheerability	0.0	0.0	True
454.326	0.0	2Suff PseudoStemNW	24	454326	stumialize	0.0	1.0	False
455.543	0.0	1Suff PseudoStemNW	14	455543	eetward	0.0	1.0	False
456.618	0.0	0Suff w/o Lat.	2	456618	execute	1.0	0.0	False
457.61	0.0	0Suff w/o Lat.	2	457610	decide	1.0	0.0	False
458.411	0.0	1Suff RealStemNW	15	458411	extensful	0.0	0.0	True
459.236	0.0	1Suff w/o Lat.	12	459236	logical	1.0	0.0	False
460.003	0.0	2Suff w/ Lat.	21	460003	affirmatively	1.0	0.0	False
460.953	0.0	1Suff w/o Lat.	12	460953	hopeless	1.0	0.0	False
461.762	0.0	2Suff RealStemNW	25	461762	subjectfully	0.0	0.0	True
462.645	0.0	1Suff RealStemNW	15	462645	exhibitate	0.0	0.0	True
463.696	0.0	1Suff w/o Lat.	12	463696	definite	1.0	0.0	False
464.521	0.0	2Suff Composite	23	464521	dramatization	1.0	0.0	False
465.863	0.0	1Suff w/o Lat.	12	465863	orderly	1.0	0.0	False
466.688	0.0	2Suff w/ Lat.	21	466688	conceptually	1.0	0.0	False
467.822	0.0	0Suff NW	4	467822	fleed	0.0	0.0	True
469.031	0.0	0Suff w/o Lat.	2	469031	moist	1.0	0.0	False
470.139	0.0	2Suff PseudoStemNW	24	470139	eltensively	0.0	1.0	False
471.256	0.0	2Suff RealStemNW	25	471256	musicical	0.0	0.0	True
472.348	0.0	2Suff PseudoStemNW	24	472348	reratively	0.0	1.0	False
473.757	0.0	2Suff w/o Lat.	22	473757	fatalism	1.0	0.0	False
474.849	0.0	1Suff RealStemNW	15	474849	soulive	0.0	1.0	False
475.899	0.0	2Suff w/o Lat.	22	475899	relativity	1.0	0.0	False
476.966	0.0	1Suff w/o Lat.	12	476966	nervous	1.0	0.0	False
477.875	0.0	1Suff RealStemNW	15	477875	differious	0.0	1.0	False
478.892	0.0	1Suff w/o Lat.	12	478892	believable	1.0	1.0	True
479.809	0.0	0Suff w/o Lat.	2	479809	nerve	1.0	0.0	False
480.567	0.0	1Suff PseudoStemNW	14	480567	dehonite	0.0	1.0	False
481.559	0.0	0Suff w/o Lat.	2	481559	fury	1.0	0.0	False
482.56	0.0	0Suff w/o Lat.	2	482560	provoke	1.0	0.0	False
483.585	0.0	1Suff PseudoStemNW	14	483585	priueurant	0.0	1.0	False
484.71	0.0	2Suff PseudoStemNW	24	484710	esdybitionism	0.0	1.0	False
485.902	0.0	0Suff w/o Lat.	2	485902	profit	1.0	0.0	False
486.969	0.0	0Suff w/o Lat.	2	486969	relate	1.0	0.0	False
487.803	0.0	2Suff RealStemNW	25	487803	seasonical	0.0	1.0	False
489.112	0.0	2Suff PseudoStemNW	24	489112	distawksively	0.0	1.0	False
490.029	0.0	2Suff RealStemNW	25	490029	commutfully	0.0	1.0	False
491.171	0.0	0Suff NW	4	491171	urmer	0.0	1.0	False
492.054	0.0	2Suff Composite	23	492054	characteristic	1.0	0.0	False
492.988	0.0	2Suff PseudoStemNW	24	492988	gloofully	0.0	1.0	False
494.088	0.0	0Suff w/o Lat.	2	494088	faith	1.0	0.0	False
495.072	0.0	2Suff RealStemNW	25	495072	fatical	0.0	1.0	False
496.197	0.0	1Suff w/o Lat.	12	496197	furious	1.0	0.0	False
497.014	0.0	2Suff PseudoStemNW	24	497014	stumiality	0.0	1.0	False
498.181	0.0	1Suff PseudoStemNW	14	498181	appigental	0.0	1.0	False
499.131	0.0	2Suff w/o Lat.	22	499131	statistically	1.0	0.0	False
500.182	0.0	0Suff NW	4	500182	etil	0.0	1.0	False
501.157	0.0	1Suff w/o Lat.	12	501157	harmless	1.0	1.0	True
502.266	0.0	2Suff Composite	23	502266	deterministic	1.0	0.0	False
503.024	0.0	1Suff w/o Lat.	12	503024	government	1.0	0.0	False
503.791	0.0	1Suff PseudoStemNW	14	503791	subplencial	0.0	1.0	False
504.767	0.0	2Suff PseudoStemNW	24	504767	falumfilly	0.0	1.0	False
505.825	0.0	0Suff w/ Lat.	1	505825	progress	1.0	0.0	False
506.675	0.0	2Suff w/o Lat.	22	506675	orderliness	1.0	0.0	False
507.576	0.0	0Suff w/o Lat.	2	507576	immune	1.0	0.0	False
508.576	0.0	2Suff w/o Lat.	22	508576	agreeably	1.0	0.0	False
509.443	0.0	1Suff RealStemNW	15	509443	gleeive	0.0	1.0	False
510.402	0.0	2Suff Composite	23	510402	corporation	1.0	0.0	False
511.394	0.0	1Suff w/o Lat.	12	511394	adaptable	1.0	0.0	False
512.352	0.0	2Suff w/o Lat.	22	512352	speedily	1.0	0.0	False
513.161	0.0	1Suff w/o Lat.	12	513161	thoughtful	1.0	0.0	False
513.969	0.0	2Suff w/o Lat.	22	513969	believably	1.0	0.0	False
514.803	0.0	1Suff w/ Lat.	11	514803	instruction	1.0	0.0	False
515.628	0.0	2Suff RealStemNW	25	515628	financeical	0.0	1.0	False
516.762	0.0	2Suff RealStemNW	25	516762	executarity	0.0	0.0	True
518.137	0.0	1Suff w/o Lat.	12	518137	decisive	1.0	0.0	False
519.196	0.0	0Suff w/ Lat.	1	519196	subject	1.0	0.0	False
520.08	0.0	0Suff w/o Lat.	2	520080	glee	1.0	1.0	True
521.355	0.0	2Suff PseudoStemNW	24	521355	gramiously	0.0	0.0	True
522.114	0.0	2Suff w/o Lat.	22	522114	friendliness	1.0	0.0	False
523.006	0.0	2Suff RealStemNW	25	523006	accidentical	0.0	0.0	True
523.889	0.0	2Suff w/o Lat.	22	523889	childishly	1.0	1.0	True
525.748	0.0	2Suff w/o Lat.	22	525748	directorship	1.0	0.0	False
526.623	0.0	1Suff w/o Lat.	12	526623	gleeful	1.0	0.0	False
527.424	0.0	1Suff w/o Lat.	12	527424	agreeable	1.0	0.0	False
529.949	0.0	0Suff w/o Lat.	2	529949	soft	1.0	0.0	False
530.758	0.0	0Suff NW	4	530758	artlitack	0.0	1.0	False
531.75	0.0	0Suff NW	4	531750	reut	0.0	1.0	False
532.767	0.0	2Suff w/o Lat.	22	532767	differently	1.0	0.0	False
533.859	0.0	2Suff w/o Lat.	22	533859	deadliness	1.0	0.0	False
535.201	0.0	1Suff w/o Lat.	12	535201	dramatize	1.0	0.0	False
536.143	0.0	1Suff PseudoStemNW	14	536143	affaidative	0.0	0.0	True
537.085	0.0	1Suff w/o Lat.	12	537085	glorious	1.0	0.0	False
538.269	0.0	1Suff w/o Lat.	12	538269	partial	1.0	0.0	False
539.202	0.0	0Suff w/o Lat.	2	539202	ideal	1.0	0.0	False
540.019	0.0	2Suff w/o Lat.	22	540019	awfully	1.0	0.0	False
540.803	0.0	1Suff PseudoStemNW	14	540803	prodfessive	0.0	1.0	False
541.761	0.0	1Suff PseudoStemNW	14	541761	tipely	0.0	1.0	False
542.803	0.0	0Suff w/o Lat.	2	542803	pain	1.0	0.0	False
543.687	0.0	2Suff PseudoStemNW	24	543687	perburbation	0.0	1.0	False
544.921	0.0	0Suff NW	4	544921	essoils	0.0	1.0	False
545.896	0.0	2Suff RealStemNW	25	545896	directality	0.0	0.0	True
546.913	0.0	2Suff PseudoStemNW	24	546913	priueurantly	0.0	1.0	False
547.938	0.0	1Suff RealStemNW	15	547938	heroal	0.0	0.0	True
548.83	0.0	1Suff w/ Lat.	11	548830	persistent	1.0	0.0	False
549.764	0.0	2Suff PseudoStemNW	24	549764	snoughtfully	0.0	1.0	False
550.981	0.0	1Suff w/o Lat.	12	550981	dramatic	1.0	0.0	False
551.973	0.0	1Suff w/o Lat.	12	551973	ritualist	1.0	1.0	True
553.015	0.0	0Suff w/o Lat.	2	553015	cheer	1.0	0.0	False
553.948	0.0	2Suff Composite	23	553948	militarization	1.0	1.0	True
555.032	0.0	1Suff PseudoStemNW	14	555032	prebitable	0.0	0.0	True
555.824	0.0	1Suff PseudoStemNW	14	555824	orifadal	0.0	1.0	False
556.983	0.0	2Suff w/o Lat.	22	556983	forgetfulness	1.0	0.0	False
558.083	0.0	0Suff NW	4	558083	diruce	0.0	1.0	False
559.075	0.0	0Suff NW	4	559075	exufant	0.0	1.0	False
560.092	0.0	2Suff Composite	23	560092	affectation	1.0	0.0	False
560.934	0.0	2Suff PseudoStemNW	24	560934	thashfulness	0.0	1.0	False
562.051	0.0	0Suff NW	4	562051	snight	0.0	1.0	False
563.201	0.0	2Suff w/ Lat.	21	563201	conceptualize	1.0	0.0	False
564.093	0.0	0Suff w/o Lat.	2	564093	music	1.0	0.0	False
564.91	0.0	1Suff PseudoStemNW	14	564910	snoughtless	0.0	1.0	False
566.085	0.0	2Suff RealStemNW	25	566085	futurional	0.0	1.0	False
567.478	0.0	1Suff w/o Lat.	12	567478	decorate	1.0	0.0	False
568.444	0.0	1Suff w/o Lat.	12	568444	persuasive	1.0	0.0	False
569.395	0.0	2Suff PseudoStemNW	24	569395	banically	0.0	1.0	False
570.462	0.0	0Suff w/o Lat.	2	570462	substance	1.0	0.0	False
571.312	0.0	0Suff NW	4	571312	affall	0.0	1.0	False
572.379	0.0	1Suff PseudoStemNW	14	572379	paftial	0.0	1.0	False
573.438	0.0	1Suff w/o Lat.	12	573438	thankful	1.0	0.0	False
574.471	0.0	0Suff NW	4	574471	degor	0.0	0.0	True
575.48	0.0	0Suff w/o Lat.	2	575480	market	1.0	0.0	False
576.239	0.0	2Suff RealStemNW	25	576239	exhaustfully	0.0	1.0	False
577.147	0.0	0Suff w/o Lat.	2	577147	ceremony	1.0	0.0	False
578.414	0.0	2Suff w/o Lat.	22	578414	partially	1.0	0.0	False
579.406	0.0	2Suff PseudoStemNW	24	579406	chierfully	0.0	0.0	True
580.54	0.0	2Suff Composite	23	580540	mechanistic	1.0	0.0	False
581.423	0.0	2Suff Composite	23	581423	pasteurization	1.0	0.0	False
582.807	0.0	2Suff RealStemNW	25	582807	restiousness	0.0	0.0	True
584.066	0.0	1Suff w/o Lat.	12	584066	hopeful	1.0	0.0	False
584.858	0.0	1Suff w/o Lat.	12	584858	marginal	1.0	0.0	False
585.716	0.0	0Suff NW	4	585716	itcress	0.0	1.0	False
586.683	0.0	2Suff PseudoStemNW	24	586683	urhanization	0.0	0.0	True
587.759	0.0	2Suff Composite	23	587759	vitalization	1.0	0.0	False
588.592	0.0	1Suff PseudoStemNW	14	588592	concolerable	0.0	0.0	True
589.809	0.0	0Suff w/o Lat.	2	589809	ritual	1.0	0.0	False
590.701	0.0	0Suff w/o Lat.	2	590701	triumph	1.0	0.0	False
591.618	0.0	2Suff w/o Lat.	22	591618	originality	1.0	0.0	False
592.602	0.0	2Suff w/o Lat.	22	592602	fastener	1.0	0.0	False
593.494	0.0	2Suff RealStemNW	25	593494	dramatilessly	0.0	1.0	False
594.611	0.0	0Suff NW	4	594611	pasnet	0.0	1.0	False
595.711	0.0	0Suff NW	4	595711	miccess	0.0	0.0	True
596.762	0.0	2Suff PseudoStemNW	24	596762	pasklessly	0.0	1.0	False
597.945	0.0	1Suff RealStemNW	15	597945	manen	0.0	1.0	False
599.021	0.0	2Suff w/ Lat.	21	599021	subjectivity	1.0	1.0	True
600.196	0.0	0Suff w/o Lat.	2	600196	thick	1.0	0.0	False
601.013	0.0	2Suff RealStemNW	25	601013	leadantate	0.0	0.0	True
601.93	0.0	1Suff w/o Lat.	12	601930	considerable	1.0	0.0	False
602.838	0.0	0Suff NW	4	602838	paffer	0.0	1.0	False
603.905	0.0	2Suff RealStemNW	25	603905	considerishly	0.0	0.0	True
604.881	0.0	1Suff w/o Lat.	12	604881	development	1.0	0.0	False
605.956	0.0	0Suff w/o Lat.	2	605956	period	1.0	0.0	False
606.948	0.0	1Suff w/o Lat.	12	606948	magnetic	1.0	0.0	False
608.073	0.0	1Suff PseudoStemNW	14	608073	betiecable	0.0	1.0	False
609.632	0.0	0Suff NW	4	609632	frala	0.0	1.0	False
610.682	0.0	0Suff NW	4	610682	hode	0.0	1.0	False
611.824	0.0	1Suff w/o Lat.	12	611824	notable	1.0	0.0	False
612.833	0.0	1Suff PseudoStemNW	14	612833	awdition	0.0	1.0	False
613.992	0.0	2Suff PseudoStemNW	24	613992	desalkation	0.0	1.0	False
615.201	0.0	0Suff NW	4	615201	distawks	0.0	1.0	False
616.159	0.0	1Suff PseudoStemNW	14	616159	aisless	0.0	1.0	False
617.276	0.0	0Suff w/ Lat.	1	617276	impress	1.0	0.0	False
618.452	0.0	2Suff PseudoStemNW	24	618452	uspasionally	0.0	1.0	False
619.46	0.0	1Suff w/o Lat.	12	619460	intensive	1.0	0.0	False
620.435	0.0	0Suff NW	4	620435	avold	0.0	1.0	False
621.511	0.0	1Suff RealStemNW	15	621511	sterilist	0.0	1.0	False
623.061	0.0	0Suff NW	4	623061	pavediad	0.0	1.0	False
624.087	0.0	1Suff PseudoStemNW	14	624087	pavediadist	0.0	1.0	False
625.087	0.0	0Suff NW	4	625087	dehone	0.0	1.0	False
626.221	0.0	2Suff w/o Lat.	22	626221	graciously	1.0	0.0	False
627.104	0.0	1Suff PseudoStemNW	14	627104	coppentate	0.0	1.0	False
628.388	0.0	2Suff RealStemNW	25	628388	idealional	0.0	1.0	False
629.638	0.0	1Suff w/o Lat.	12	629638	awful	1.0	0.0	False
630.555	0.0	2Suff PseudoStemNW	24	630555	otification	0.0	1.0	False
631.614	0.0	0Suff w/o Lat.	2	631614	agree	1.0	0.0	False
632.473	0.0	2Suff PseudoStemNW	24	632473	tipeliness	0.0	1.0	False
633.765	0.0	1Suff RealStemNW	15	633765	furance	0.0	0.0	True
634.923	0.0	2Suff RealStemNW	25	634923	fatantly	0.0	0.0	True
636.099	0.0	1Suff PseudoStemNW	14	636099	falal	0.0	1.0	False
637.207	0.0	1Suff w/o Lat.	12	637207	direction	1.0	0.0	False
638.191	0.0	2Suff w/o Lat.	22	638191	seasonally	1.0	0.0	False
639.133	0.0	2Suff w/o Lat.	22	639133	definitely	1.0	0.0	False
639.983	0.0	2Suff w/o Lat.	22	639983	notification	1.0	0.0	False
640.917	0.0	2Suff RealStemNW	25	640917	vitalilessly	0.0	0.0	True
642.367	0.0	2Suff PseudoStemNW	24	642367	rerativity	0.0	1.0	False
643.434	0.0	1Suff PseudoStemNW	14	643434	fralatize	0.0	1.0	False
644.56	0.0	0Suff w/o Lat.	2	644560	awe	1.0	0.0	False
645.66	0.0	0Suff w/o Lat.	2	645660	exhaust	1.0	0.0	False
646.585	0.0	2Suff w/o Lat.	22	646585	cheerfulness	1.0	0.0	False
647.594	0.0	1Suff PseudoStemNW	14	647594	girernment	0.0	1.0	False
648.594	0.0	0Suff w/o Lat.	2	648594	health	1.0	0.0	False
649.453	0.0	1Suff RealStemNW	15	649453	intensful	0.0	0.0	True
650.511	0.0	2Suff w/ Lat.	21	650511	exhibitionism	1.0	1.0	True
651.603	0.0	2Suff PseudoStemNW	24	651603	orifadally	0.0	0.0	True
652.612	0.0	1Suff w/o Lat.	12	652612	leader	1.0	0.0	False
656.763	0.0	1Suff PseudoStemNW	14	656763	analkable	0.0	1.0	False
657.897	0.0	0Suff w/ Lat.	1	657897	persist	1.0	0.0	False
658.964	0.0	1Suff RealStemNW	15	658964	mistaker	0.0	1.0	False
660.056	0.0	2Suff w/o Lat.	22	660056	exhaustively	1.0	0.0	False
660.948	0.0	2Suff RealStemNW	25	660948	guiltioner	0.0	1.0	False
661.973	0.0	1Suff PseudoStemNW	14	661973	headthy	0.0	0.0	True
662.974	0.0	0Suff w/o Lat.	2	662974	decor	1.0	0.0	False
663.774	0.0	1Suff PseudoStemNW	14	663774	rhylphic	0.0	1.0	False
664.816	0.0	1Suff w/o Lat.	12	664816	painful	1.0	0.0	False
665.708	0.0	0Suff NW	4	665708	thack	0.0	1.0	False
666.7	0.0	2Suff Composite	23	666700	confederation	1.0	0.0	False
668.292	0.0	2Suff w/o Lat.	22	668292	triumphantly	1.0	0.0	False
669.192	0.0	2Suff w/o Lat.	22	669192	basically	1.0	0.0	False
669.992	0.0	2Suff Composite	23	669992	amplification	1.0	1.0	True
670.993	0.0	0Suff NW	4	670993	bant	0.0	0.0	True
671.76	0.0	0Suff w/o Lat.	2	671760	base	1.0	0.0	False
672.693	0.0	0Suff NW	4	672693	detisms	0.0	1.0	False
673.61	0.0	0Suff NW	4	673610	musual	0.0	0.0	True
674.552	0.0	1Suff w/o Lat.	12	674552	seasonal	1.0	0.0	False
675.394	0.0	1Suff RealStemNW	15	675394	confessate	0.0	1.0	False
676.736	0.0	0Suff NW	4	676736	atrie	0.0	1.0	False
677.803	0.0	0Suff w/o Lat.	2	677803	believe	1.0	0.0	False
678.645	0.0	1Suff PseudoStemNW	14	678645	fralatic	0.0	1.0	False
679.645	0.0	1Suff w/o Lat.	12	679645	guardian	1.0	0.0	False
680.554	0.0	2Suff PseudoStemNW	24	680554	chirdishly	0.0	1.0	False
681.629	0.0	0Suff NW	4	681629	prodfess	0.0	1.0	False
682.946	0.0	1Suff PseudoStemNW	14	682946	deabonable	0.0	1.0	False
683.797	0.0	2Suff Composite	23	683797	commutation	1.0	0.0	False
684.714	0.0	1Suff w/o Lat.	12	684714	timely	1.0	0.0	False
685.622	0.0	2Suff w/ Lat.	21	685622	predictably	1.0	0.0	False
686.589	0.0	0Suff w/o Lat.	2	686589	accident	1.0	0.0	False
687.439	0.0	1Suff w/o Lat.	12	687439	musical	1.0	0.0	False
688.256	0.0	1Suff w/o Lat.	12	688256	polar	1.0	0.0	False
689.373	0.0	1Suff w/o Lat.	12	689373	glorify	1.0	0.0	False
690.274	0.0	2Suff w/o Lat.	22	690274	softener	1.0	0.0	False
691.374	0.0	2Suff PseudoStemNW	24	691374	hodelessness	0.0	1.0	False
692.516	0.0	0Suff NW	4	692516	pead	0.0	1.0	False
693.808	0.0	2Suff PseudoStemNW	24	693808	instrovtional	0.0	1.0	False
695.267	0.0	1Suff RealStemNW	15	695267	gracance	0.0	0.0	True
696.3	0.0	0Suff w/o Lat.	2	696300	dead	1.0	0.0	False
697.251	0.0	1Suff PseudoStemNW	14	697251	uteless	0.0	1.0	False
698.418	0.0	0Suff NW	4	698418	attossin	0.0	1.0	False
699.343	0.0	2Suff PseudoStemNW	24	699343	dehonitive	0.0	1.0	False
700.343	0.0	2Suff Composite	23	700343	cannibalistic	1.0	0.0	False
701.31	0.0	2Suff w/o Lat.	22	701310	dramatically	1.0	0.0	False
702.202	0.0	2Suff w/o Lat.	22	702202	materialistic	1.0	0.0	False
703.094	0.0	0Suff w/o Lat.	2	703094	compete	1.0	0.0	False
704.17	0.0	2Suff w/o Lat.	22	704170	relatively	1.0	0.0	False
705.037	0.0	2Suff w/ Lat.	21	705037	mistakenly	1.0	0.0	False
706.012	0.0	1Suff RealStemNW	15	706012	relatful	0.0	0.0	True
706.929	0.0	1Suff PseudoStemNW	14	706929	thashful	0.0	1.0	False
708.388	0.0	0Suff NW	4	708388	hesa	0.0	1.0	False
709.446	0.0	1Suff w/o Lat.	12	709446	graceful	1.0	0.0	False
710.43	0.0	1Suff w/o Lat.	12	710430	profitable	1.0	0.0	False
711.455	0.0	0Suff w/o Lat.	2	711455	persuade	1.0	0.0	False
712.497	0.0	2Suff w/o Lat.	22	712497	marketability	1.0	0.0	False
713.889	0.0	0Suff NW	4	713889	faulm	0.0	1.0	False
714.856	0.0	1Suff w/o Lat.	12	714856	deadly	1.0	1.0	True
715.756	0.0	2Suff Composite	23	715756	utilization	1.0	0.0	False
716.682	0.0	0Suff NW	4	716682	chotintic	0.0	1.0	False
718.024	0.0	0Suff w/o Lat.	2	718024	regret	1.0	0.0	False
719.016	0.0	2Suff RealStemNW	25	719016	projectliness	0.0	0.0	True
719.974	0.0	0Suff w/o Lat.	2	719974	define	1.0	0.0	False
720.841	0.0	0Suff w/o Lat.	2	720841	logic	1.0	0.0	False
721.708	0.0	2Suff RealStemNW	25	721708	satirally	0.0	0.0	True
723.134	0.0	1Suff w/o Lat.	12	723134	cheerful	1.0	0.0	False
723.984	0.0	2Suff PseudoStemNW	24	723984	restittably	0.0	1.0	False
725.293	0.0	1Suff PseudoStemNW	14	725293	prowertion	0.0	1.0	False
726.518	0.0	1Suff w/o Lat.	12	726518	heroic	1.0	0.0	False
727.794	0.0	0Suff NW	4	727794	chird	0.0	0.0	True
728.577	0.0	0Suff NW	4	728577	cossete	0.0	1.0	False
729.711	0.0	1Suff w/ Lat.	11	729711	progressive	1.0	0.0	False
730.803	0.0	0Suff w/o Lat.	2	730803	intense	1.0	0.0	False
731.728	0.0	0Suff w/o Lat.	2	731728	child	1.0	0.0	False
732.52	0.0	1Suff w/o Lat.	12	732520	useful	1.0	0.0	False
733.32	0.0	0Suff NW	4	733320	affaid	0.0	1.0	False
734.654	0.0	2Suff w/o Lat.	22	734654	moisturize	1.0	0.0	False
735.838	0.0	1Suff w/o Lat.	12	735838	essential	1.0	0.0	False
736.88	0.0	1Suff w/o Lat.	12	736880	idealize	1.0	0.0	False
737.805	0.0	0Suff NW	4	737805	eshaums	0.0	1.0	False
738.797	0.0	0Suff NW	4	738797	concuch	0.0	1.0	False
739.897	0.0	1Suff w/o Lat.	12	739897	basic	1.0	0.0	False
740.798	0.0	2Suff w/o Lat.	22	740798	fatally	1.0	0.0	False
741.815	0.0	1Suff PseudoStemNW	14	741815	steadthy	0.0	1.0	False
742.99	0.0	1Suff RealStemNW	15	742990	successate	0.0	1.0	False
744.207	0.0	0Suff w/o Lat.	2	744207	race	1.0	0.0	False
745.174	0.0	2Suff Composite	23	745174	autistic	1.0	0.0	False
746.149	0.0	2Suff RealStemNW	25	746149	marketfulness	0.0	0.0	True
747.55	0.0	1Suff RealStemNW	15	747550	ritualify	0.0	0.0	True
748.483	0.0	1Suff RealStemNW	15	748483	painable	0.0	0.0	True
749.434	0.0	2Suff PseudoStemNW	24	749434	pasnetically	0.0	1.0	False
750.476	0.0	2Suff w/o Lat.	22	750476	ritualistic	1.0	0.0	False
751.526	0.0	1Suff RealStemNW	15	751526	logicic	0.0	0.0	True
752.384	0.0	2Suff PseudoStemNW	24	752384	adstification	0.0	1.0	False
753.743	0.0	1Suff PseudoStemNW	14	753743	nolable	0.0	1.0	False
754.768	0.0	0Suff w/o Lat.	2	754768	guilt	1.0	0.0	False
755.936	0.0	1Suff RealStemNW	15	755936	developward	0.0	1.0	False
757.628	0.0	1Suff w/o Lat.	12	757628	realist	1.0	0.0	False
758.586	0.0	1Suff RealStemNW	15	758586	forgetive	0.0	0.0	True
759.578	0.0	1Suff RealStemNW	15	759578	protectate	0.0	0.0	True
760.595	0.0	2Suff Composite	23	760595	organization	1.0	0.0	False
761.571	0.0	1Suff w/o Lat.	12	761571	childish	1.0	0.0	False
762.588	0.0	0Suff NW	4	762588	headth	0.0	1.0	False
763.688	0.0	1Suff PseudoStemNW	14	763688	sushective	0.0	0.0	True
764.655	0.0	2Suff RealStemNW	25	764655	deadionist	0.0	0.0	True
765.505	0.0	2Suff Composite	23	765505	quotation	1.0	0.0	False
766.564	0.0	1Suff w/o Lat.	12	766564	easy	1.0	0.0	False
767.397	0.0	1Suff RealStemNW	15	767397	nervate	0.0	0.0	True
768.356	0.0	1Suff PseudoStemNW	14	768356	mosimize	0.0	1.0	False
769.49	0.0	1Suff w/o Lat.	12	769490	thoughtless	1.0	0.0	False
770.54	0.0	2Suff w/o Lat.	22	770540	considerately	1.0	0.0	False
771.657	0.0	2Suff RealStemNW	25	771657	moistantly	0.0	0.0	True
772.874	0.0	0Suff NW	4	772874	nerbs	0.0	1.0	False
773.899	0.0	2Suff PseudoStemNW	24	773899	snightfully	0.0	0.0	True
774.958	0.0	2Suff PseudoStemNW	24	774958	hythically	0.0	1.0	False
776.267	0.0	1Suff w/o Lat.	12	776267	moisture	1.0	0.0	False
777.375	0.0	2Suff RealStemNW	25	777375	familiately	0.0	1.0	False
778.509	0.0	1Suff w/o Lat.	12	778509	faithful	1.0	0.0	False
779.443	0.0	1Suff w/ Lat.	11	779443	affection	1.0	0.0	False
783.144	0.0	1Suff w/o Lat.	12	783144	regrettable	1.0	0.0	False
784.228	0.0	0Suff NW	4	784228	vimid	0.0	1.0	False
785.261	0.0	0Suff NW	4	785261	ute	0.0	1.0	False
786.337	0.0	2Suff PseudoStemNW	24	786337	stoteldionist	0.0	1.0	False
787.379	0.0	0Suff NW	4	787379	halk	0.0	1.0	False
788.279	0.0	2Suff RealStemNW	25	788279	provocatfully	0.0	0.0	True
789.929	0.0	0Suff NW	4	789929	rhylph	0.0	1.0	False
791.121	0.0	2Suff RealStemNW	25	791121	friendionist	0.0	0.0	True
792.18	0.0	0Suff w/o Lat.	2	792180	poet	1.0	0.0	False
793.539	0.0	0Suff NW	4	793539	sest	0.0	1.0	False
794.631	0.0	2Suff Composite	23	794631	satirical	1.0	0.0	False
795.764	0.0	2Suff w/o Lat.	22	795764	validation	1.0	0.0	False
796.748	0.0	2Suff w/o Lat.	22	796748	fatality	1.0	0.0	False
797.665	0.0	2Suff RealStemNW	25	797665	harmiously	0.0	1.0	False
798.832	0.0	2Suff PseudoStemNW	24	798832	deterfuristic	0.0	1.0	False
799.941	0.0	0Suff NW	4	799941	concoler	0.0	1.0	False
801.199	0.0	0Suff w/o Lat.	2	801199	sleep	1.0	0.0	False
802.133	0.0	1Suff PseudoStemNW	14	802133	lenctional	0.0	1.0	False
803.25	0.0	2Suff RealStemNW	25	803250	subjectously	0.0	0.0	True
804.951	0.0	2Suff w/o Lat.	22	804951	childishness	1.0	1.0	True
806.634	0.0	0Suff NW	4	806634	tuty	0.0	1.0	False
807.776	0.0	2Suff PseudoStemNW	24	807776	avoldability	0.0	1.0	False
808.952	0.0	1Suff w/o Lat.	12	808952	aimless	1.0	0.0	False
810.019	0.0	1Suff PseudoStemNW	14	810019	degorate	0.0	0.0	True
811.744	0.0	1Suff RealStemNW	15	811744	competitful	0.0	1.0	False
812.861	0.0	0Suff w/ Lat.	1	812861	mistake	1.0	0.0	False
813.687	0.0	2Suff PseudoStemNW	24	813687	falality	0.0	1.0	False
815.004	0.0	2Suff PseudoStemNW	24	815004	utefully	0.0	1.0	False
816.129	0.0	2Suff w/o Lat.	22	816129	cheerfully	1.0	0.0	False
817.154	0.0	1Suff w/o Lat.	12	817154	education	1.0	0.0	False
818.055	0.0	1Suff RealStemNW	15	818055	persistify	0.0	1.0	False
819.488	0.0	2Suff RealStemNW	25	819488	polioner	0.0	0.0	True
820.555	0.0	2Suff w/ Lat.	21	820555	extensively	1.0	0.0	False
821.331	0.0	0Suff w/o Lat.	2	821331	adapt	1.0	0.0	False
822.231	0.0	1Suff w/o Lat.	12	822231	poetic	1.0	0.0	False
823.14	0.0	1Suff PseudoStemNW	14	823140	falumful	0.0	1.0	False
824.132	0.0	1Suff RealStemNW	15	824132	thoughtive	0.0	0.0	True
825.215	0.0	1Suff PseudoStemNW	14	825215	stumial	0.0	1.0	False
826.274	0.0	2Suff w/ Lat.	21	826274	availability	1.0	0.0	False
827.316	0.0	1Suff w/ Lat.	11	827316	affirmative	1.0	0.0	False
828.658	0.0	0Suff w/o Lat.	2	828658	soul	1.0	0.0	False
829.541	0.0	2Suff PseudoStemNW	24	829541	rhylphically	0.0	1.0	False
830.558	0.0	2Suff w/o Lat.	22	830558	hopelessly	1.0	0.0	False
831.592	0.0	2Suff w/o Lat.	22	831592	idealization	1.0	1.0	True
832.776	0.0	0Suff NW	4	832776	appigent	0.0	1.0	False
833.818	0.0	1Suff PseudoStemNW	14	833818	fleedy	0.0	1.0	False
835.127	0.0	2Suff w/o Lat.	22	835127	gleefully	1.0	1.0	True
836.277	0.0	2Suff w/o Lat.	22	836277	ceremonially	1.0	0.0	False
837.261	0.0	1Suff w/o Lat.	12	837261	peaceful	1.0	0.0	False
838.077	0.0	0Suff NW	4	838077	lenction	0.0	1.0	False
839.136	0.0	1Suff PseudoStemNW	14	839136	meabonal	0.0	1.0	False
840.27	0.0	2Suff PseudoStemNW	24	840270	fleedily	0.0	1.0	False
841.529	0.0	1Suff PseudoStemNW	14	841529	paskful	0.0	1.0	False
842.429	0.0	2Suff w/o Lat.	22	842429	editorship	1.0	1.0	True
843.971	0.0	1Suff PseudoStemNW	14	843971	gulbsian	0.0	1.0	False
844.955	0.0	0Suff NW	4	844955	grame	0.0	1.0	False
846.063	0.0	2Suff w/o Lat.	22	846063	isolationism	1.0	0.0	False
847.364	0.0	0Suff w/o Lat.	2	847364	essence	1.0	0.0	False
848.247	0.0	2Suff w/o Lat.	22	848247	definitive	1.0	0.0	False
849.181	0.0	2Suff w/o Lat.	22	849181	executioner	1.0	0.0	False
850.515	0.0	2Suff PseudoStemNW	24	850515	vefation	0.0	1.0	False
852.032	0.0	2Suff w/o Lat.	22	852032	aimlessly	1.0	0.0	False
853.416	0.0	2Suff w/o Lat.	22	853416	periodical	1.0	0.0	False
854.341	0.0	1Suff PseudoStemNW	14	854341	thacken	0.0	1.0	False
855.308	0.0	2Suff w/o Lat.	22	855308	marginally	1.0	0.0	False
856.258	0.0	1Suff w/o Lat.	12	856258	ceremonial	1.0	0.0	False
857.325	0.0	2Suff w/o Lat.	22	857325	harmlessly	1.0	0.0	False
858.284	0.0	1Suff RealStemNW	15	858284	delightive	0.0	1.0	False
859.401	0.0	1Suff w/ Lat.	11	859401	subjective	1.0	0.0	False
860.393	0.0	0Suff NW	4	860393	provame	0.0	1.0	False
861.401	0.0	1Suff w/o Lat.	12	861401	substantial	1.0	0.0	False
862.885	0.0	2Suff Composite	23	862885	revitalization	1.0	0.0	False
864.386	0.0	0Suff w/o Lat.	2	864386	harm	1.0	0.0	False
865.202	0.0	0Suff NW	4	865202	stumia	0.0	1.0	False
866.203	0.0	1Suff RealStemNW	15	866203	marketless	0.0	0.0	True
867.061	0.0	2Suff RealStemNW	25	867061	immunability	0.0	0.0	True
868.203	0.0	2Suff RealStemNW	25	868203	fatalize	0.0	1.0	False
869.287	0.0	0Suff w/o Lat.	2	869287	reason	1.0	0.0	False
870.121	0.0	1Suff PseudoStemNW	14	870121	chierful	0.0	1.0	False
871.354	0.0	2Suff PseudoStemNW	24	871354	hodelessly	0.0	1.0	False
872.596	0.0	2Suff w/o Lat.	22	872596	idealistic	1.0	0.0	False
873.447	0.0	0Suff NW	4	873447	mevion	0.0	1.0	False
874.547	0.0	2Suff RealStemNW	25	874547	characterional	0.0	0.0	True
875.497	0.0	1Suff w/o Lat.	12	875497	periodic	1.0	0.0	False
876.406	0.0	1Suff PseudoStemNW	14	876406	chotintical	0.0	1.0	False
877.381	0.0	2Suff w/o Lat.	22	877381	architectural	1.0	0.0	False
878.415	0.0	2Suff w/o Lat.	22	878415	thickener	1.0	0.0	False
879.273	0.0	0Suff NW	4	879273	preguct	0.0	1.0	False
880.274	0.0	2Suff Composite	23	880274	sterilization	1.0	0.0	False
881.366	0.0	2Suff PseudoStemNW	24	881366	comlomation	0.0	1.0	False
882.416	0.0	0Suff NW	4	882416	paft	0.0	1.0	False
883.433	0.0	0Suff w/o Lat.	2	883433	worth	1.0	1.0	True
884.258	0.0	1Suff w/o Lat.	12	884258	familiar	1.0	0.0	False
885.175	0.0	2Suff w/o Lat.	22	885175	magnetically	1.0	0.0	False
886.276	0.0	1Suff PseudoStemNW	14	886276	nolify	0.0	0.0	True
887.159	0.0	2Suff PseudoStemNW	24	887159	coppentator	0.0	1.0	False
888.393	0.0	2Suff w/o Lat.	22	888393	essentially	1.0	0.0	False
889.368	0.0	1Suff RealStemNW	15	889368	useive	0.0	1.0	False
890.527	0.0	1Suff PseudoStemNW	14	890527	hythical	0.0	0.0	True
891.336	0.0	2Suff w/o Lat.	22	891336	originator	1.0	0.0	False
892.302	0.0	2Suff PseudoStemNW	24	892302	steadthily	0.0	0.0	True
893.403	0.0	1Suff w/ Lat.	11	893403	exhibition	1.0	0.0	False
894.32	0.0	0Suff NW	4	894320	goult	0.0	1.0	False
895.378	0.0	1Suff w/ Lat.	11	895378	predictable	1.0	0.0	False
896.379	0.0	1Suff w/o Lat.	12	896379	useless	1.0	0.0	False
897.487	0.0	0Suff w/o Lat.	2	897487	isolate	1.0	0.0	False
898.371	0.0	1Suff RealStemNW	15	898371	conceptuic	0.0	1.0	False
900.055	0.0	2Suff RealStemNW	25	900055	decorural	0.0	1.0	False
901.18	0.0	2Suff Composite	23	901180	inflammation	1.0	0.0	False
902.422	0.0	0Suff w/o Lat.	2	902422	sterile	1.0	0.0	False
903.531	0.0	2Suff w/o Lat.	22	903531	painlessly	1.0	0.0	False
904.54	0.0	1Suff w/o Lat.	12	904540	thicken	1.0	0.0	False
905.348	0.0	1Suff w/o Lat.	12	905348	materialist	1.0	0.0	False
906.332	0.0	2Suff PseudoStemNW	24	906332	headthily	0.0	0.0	True
907.14	0.0	2Suff PseudoStemNW	24	907140	tutiously	0.0	1.0	False
908.274	0.0	2Suff PseudoStemNW	24	908274	arfulness	0.0	1.0	False
909.349	0.0	2Suff w/o Lat.	22	909349	glorification	1.0	0.0	False
910.366	0.0	1Suff RealStemNW	15	910366	leador	0.0	1.0	False
911.425	0.0	0Suff NW	4	911425	rame	0.0	1.0	False
916.227	0.0	0Suff NW	4	916227	wate	0.0	1.0	False
917.268	0.0	2Suff w/o Lat.	22	917268	outwardly	1.0	0.0	False
918.252	0.0	2Suff RealStemNW	25	918252	definerize	0.0	1.0	False
919.294	0.0	2Suff RealStemNW	25	919294	persistalism	0.0	1.0	False
920.311	0.0	2Suff w/o Lat.	22	920311	intensively	1.0	0.0	False
921.22	0.0	1Suff PseudoStemNW	14	921220	ewsibal	0.0	1.0	False
922.228	0.0	0Suff NW	4	922228	arx	0.0	1.0	False
923.162	0.0	1Suff w/o Lat.	12	923162	delightful	1.0	0.0	False
924.062	0.0	1Suff RealStemNW	15	924062	financeic	0.0	1.0	False
925.063	0.0	2Suff w/ Lat.	21	925063	progressively	1.0	0.0	False
925.988	0.0	2Suff PseudoStemNW	24	925988	sorkener	0.0	1.0	False
926.93	0.0	1Suff PseudoStemNW	14	926930	mowthure	0.0	1.0	False
928.08	0.0	0Suff NW	4	928080	wead	0.0	1.0	False
929.172	0.0	1Suff PseudoStemNW	14	929172	chansotion	0.0	1.0	False
930.156	0.0	2Suff w/o Lat.	22	930156	mythically	1.0	0.0	False
931.164	0.0	0Suff NW	4	931164	rumic	0.0	1.0	False
932.19	0.0	1Suff RealStemNW	15	932190	agreeless	0.0	0.0	True
933.082	0.0	2Suff w/o Lat.	22	933082	adaptability	1.0	0.0	False
934.157	0.0	0Suff NW	4	934157	sushect	0.0	1.0	False
935.141	0.0	0Suff NW	4	935141	onnense	0.0	1.0	False
936.208	0.0	2Suff RealStemNW	25	936208	ritualional	0.0	0.0	True
937.225	0.0	0Suff w/o Lat.	2	937225	globe	1.0	0.0	False
938.067	0.0	1Suff RealStemNW	15	938067	immunist	0.0	0.0	True
939.075	0.0	1Suff w/o Lat.	12	939075	fatal	1.0	0.0	False
940.076	0.0	2Suff w/o Lat.	22	940076	governmental	1.0	0.0	False
941.034	0.0	1Suff w/o Lat.	12	941034	notify	1.0	0.0	False
941.984	0.0	2Suff w/o Lat.	22	941984	protectionist	1.0	0.0	False
942.951	0.0	2Suff PseudoStemNW	24	942951	awditional	0.0	1.0	False
944.127	0.0	2Suff w/o Lat.	22	944127	leadership	1.0	0.0	False
945.152	0.0	2Suff PseudoStemNW	24	945152	pafferentiate	0.0	1.0	False
946.269	0.0	2Suff RealStemNW	25	946269	materialional	0.0	0.0	True
947.428	0.0	0Suff NW	4	947428	moel	0.0	0.0	True
948.286	0.0	0Suff w/o Lat.	2	948286	wake	1.0	0.0	False
949.128	0.0	0Suff w/o Lat.	2	949128	protect	1.0	0.0	False
950.054	0.0	2Suff RealStemNW	25	950054	easery	0.0	1.0	False
951.204	0.0	1Suff w/o Lat.	12	951204	protection	1.0	0.0	False
952.096	0.0	0Suff w/o Lat.	2	952096	use	1.0	0.0	False
952.971	0.0	0Suff w/o Lat.	2	952971	rest	1.0	0.0	False
953.771	0.0	0Suff NW	4	953771	priueur	0.0	1.0	False
955.138	0.0	1Suff w/o Lat.	12	955138	considerate	1.0	0.0	False
956.064	0.0	2Suff RealStemNW	25	956064	orderionist	0.0	1.0	False
957.306	0.0	2Suff PseudoStemNW	24	957306	analkability	0.0	1.0	False
958.256	0.0	2Suff w/o Lat.	22	958256	guardianship	1.0	0.0	False
959.215	0.0	2Suff RealStemNW	25	959215	raceical	0.0	1.0	False
960.223	0.0	2Suff RealStemNW	25	960223	glorliness	0.0	0.0	True
961.39	0.0	2Suff RealStemNW	25	961390	educatality	0.0	0.0	True
962.282	0.0	2Suff PseudoStemNW	24	962282	nerbousness	0.0	1.0	False
963.358	0.0	1Suff w/o Lat.	12	963358	marketable	1.0	1.0	True
964.55	0.0	2Suff RealStemNW	25	964550	ailistic	0.0	0.0	True
965.375	0.0	1Suff PseudoStemNW	14	965375	restittable	0.0	0.0	True
966.5	0.0	0Suff w/o Lat.	2	966500	lead	1.0	0.0	False
967.276	0.0	2Suff RealStemNW	25	967276	relateness	0.0	0.0	True
968.243	0.0	0Suff w/o Lat.	2	968243	direct	1.0	0.0	False
969.209	0.0	2Suff w/o Lat.	22	969209	thankfulness	1.0	0.0	False
970.251	0.0	0Suff NW	4	970251	esdybit	0.0	1.0	False
971.168	0.0	2Suff RealStemNW	25	971168	graceively	0.0	0.0	True
972.26	0.0	0Suff NW	4	972260	wroty	0.0	1.0	False
973.344	0.0	2Suff w/o Lat.	22	973344	easily	1.0	0.0	False
974.319	0.0	2Suff w/o Lat.	22	974319	hopefully	1.0	0.0	False
975.228	0.0	2Suff PseudoStemNW	24	975228	chotintically	0.0	1.0	False
976.262	0.0	2Suff w/o Lat.	22	976262	competitively	1.0	0.0	False
977.204	0.0	2Suff w/ Lat.	21	977204	persistently	1.0	0.0	False
978.404	0.0	2Suff w/o Lat.	22	978404	triviality	1.0	0.0	False
979.871	0.0	0Suff w/o Lat.	2	979871	glory	1.0	0.0	False
980.671	0.0	2Suff w/o Lat.	22	980671	nervously	1.0	0.0	False
981.538	0.0	2Suff w/o Lat.	22	981538	developmental	1.0	0.0	False
982.422	0.0	1Suff w/o Lat.	12	982422	healthy	1.0	0.0	False
983.247	0.0	2Suff Composite	23	983247	stratification	1.0	0.0	False
984.756	0.0	2Suff RealStemNW	25	984756	quotfully	0.0	0.0	True
985.79	0.0	1Suff RealStemNW	15	985790	wakeive	0.0	0.0	True
986.773	0.0	2Suff Composite	23	986773	categorical	1.0	0.0	False
987.74	0.0	1Suff RealStemNW	15	987740	idealate	0.0	0.0	True
988.841	0.0	0Suff NW	4	988841	figic	0.0	1.0	False
989.983	0.0	2Suff w/o Lat.	22	989983	partiality	1.0	0.0	False
990.866	0.0	0Suff NW	4	990866	han	0.0	1.0	False
991.958	0.0	0Suff NW	4	991958	eserete	0.0	1.0	False
993.017	0.0	2Suff w/o Lat.	22	993017	notably	1.0	0.0	False
993.9	0.0	1Suff RealStemNW	15	993900	exhaustful	0.0	0.0	True
994.967	0.0	0Suff NW	4	994967	peece	0.0	0.0	True
995.776	0.0	0Suff w/ Lat.	1	995776	predict	1.0	0.0	False
996.718	0.0	1Suff w/o Lat.	12	996718	global	1.0	0.0	False
997.643	0.0	2Suff w/o Lat.	22	997643	accidentally	1.0	0.0	False
998.66	0.0	2Suff RealStemNW	25	998660	poetally	0.0	1.0	False
999.827	0.0	1Suff w/o Lat.	12	999827	frightful	1.0	0.0	False
1000.803	0.0	1Suff w/o Lat.	12	1000803	statistical	1.0	0.0	False
1001.744	0.0	0Suff w/o Lat.	2	1001744	hope	1.0	0.0	False
1002.77	0.0	0Suff NW	4	1002770	thash	0.0	1.0	False
1003.845	0.0	0Suff NW	4	1003845	awd	0.0	1.0	False
1004.954	0.0	1Suff RealStemNW	15	1004954	polit	0.0	1.0	False
1006.062	0.0	2Suff w/o Lat.	22	1006062	logically	1.0	0.0	False
1007.004	0.0	2Suff w/o Lat.	22	1007004	awfulness	1.0	0.0	False
1007.93	0.0	1Suff w/o Lat.	12	1007930	architecture	1.0	0.0	False
1008.888	0.0	1Suff w/o Lat.	12	1008888	stealthy	1.0	0.0	False
1009.964	0.0	0Suff NW	4	1009964	pipsist	0.0	1.0	False
1011.097	0.0	0Suff w/o Lat.	2	1011097	thought	1.0	0.0	False
1011.914	0.0	2Suff PseudoStemNW	24	1011914	figically	0.0	1.0	False
1012.998	0.0	2Suff w/ Lat.	21	1012998	projectionist	1.0	0.0	False
1014.007	0.0	1Suff PseudoStemNW	14	1014007	halkless	0.0	1.0	False
1015.074	0.0	2Suff w/o Lat.	22	1015074	worthlessness	1.0	0.0	False
1016.441	0.0	0Suff w/o Lat.	2	1016441	occasion	1.0	0.0	False
1017.274	0.0	2Suff w/o Lat.	22	1017274	additional	1.0	0.0	False
1018.191	0.0	2Suff PseudoStemNW	24	1018191	ewsibally	0.0	1.0	False
1019.258	0.0	2Suff Composite	23	1019258	canonical	1.0	1.0	True
1020.275	0.0	2Suff PseudoStemNW	24	1020275	pafferential	0.0	0.0	True
1021.159	0.0	2Suff PseudoStemNW	24	1021159	allidation	0.0	1.0	False
1022.501	0.0	1Suff w/o Lat.	12	1022501	transition	1.0	0.0	False
1023.543	0.0	2Suff PseudoStemNW	24	1023543	deabonably	0.0	1.0	False
1024.61	0.0	1Suff w/o Lat.	12	1024610	idealist	1.0	0.0	False
1025.518	0.0	1Suff RealStemNW	15	1025518	availless	0.0	1.0	False
