onset	duration	trial_type	value	sample	stimulus	is_word	response	correct
37.64	0.0	2Suff w/o Lat.	22	37640	marginally	1.0	0.0	False
38.832	0.0	0Suff w/o Lat.	2	38832	speed	1.0	0.0	False
39.799	0.0	0Suff NW	4	39799	vimid	0.0	1.0	False
40.707	0.0	0Suff w/o Lat.	2	40707	market	1.0	0.0	False
41.616	0.0	1Suff w/o Lat.	12	41616	aimless	1.0	0.0	False
42.716	0.0	0Suff NW	4	42716	arx	0.0	1.0	False
43.667	0.0	1Suff RealStemNW	15	43667	impressate	0.0	1.0	False
44.867	0.0	0Suff w/o Lat.	2	44867	music	1.0	0.0	False
45.784	0.0	2Suff RealStemNW	25	45784	cheerability	0.0	1.0	False
47.935	0.0	1Suff RealStemNW	15	47935	poetal	0.0	1.0	False
49.143	0.0	1Suff w/ Lat.	11	49143	predictable	1.0	0.0	False
50.185	0.0	2Suff w/o Lat.	22	50185	substantially	1.0	1.0	True
51.511	0.0	2Suff w/o Lat.	22	51511	painfully	1.0	0.0	False
52.636	0.0	0Suff NW	4	52636	hesa	0.0	1.0	False
53.57	0.0	1Suff w/ Lat.	11	53570	available	1.0	0.0	False
54.72	0.0	1Suff w/o Lat.	12	54720	glorious	1.0	0.0	False
55.712	0.0	0Suff NW	4	55712	deabon	0.0	1.0	False
56.687	0.0	0Suff NW	4	56687	esdybit	0.0	1.0	False
57.596	0.0	2Suff w/o Lat.	22	57596	persuasively	1.0	1.0	True
58.355	0.0	1Suff RealStemNW	15	58355	exhibitate	0.0	1.0	False
59.413	0.0	1Suff w/o Lat.	12	59413	validate	1.0	1.0	True
60.539	0.0	2Suff w/o Lat.	22	60539	poetical	1.0	1.0	True
61.147	0.0	1Suff w/o Lat.	12	61147	faithful	1.0	1.0	True
62.197	0.0	0Suff w/o Lat.	2	62197	moist	1.0	0.0	False
63.039	0.0	2Suff RealStemNW	25	63039	editerize	0.0	1.0	False
63.473	0.0	0Suff NW	4	63473	avold	0.0	1.0	False
63.981	0.0	1Suff w/o Lat.	12	63981	graceful	1.0	1.0	True
64.59	0.0	0Suff NW	4	64590	fars	0.0	1.0	False
65.365	0.0	2Suff PseudoStemNW	24	65365	chirdishness	0.0	1.0	False
66.54	0.0	2Suff RealStemNW	25	66540	relatifiable	0.0	1.0	False
67.749	0.0	2Suff RealStemNW	25	67749	fatical	0.0	1.0	False
68.191	0.0	0Suff NW	4	68191	detisms	0.0	1.0	False
68.616	0.0	2Suff PseudoStemNW	24	68616	utefully	0.0	1.0	False
69.158	0.0	1Suff RealStemNW	15	69158	gleeive	0.0	1.0	False
69.791	0.0	2Suff RealStemNW	25	69791	characterional	0.0	1.0	False
70.4	0.0	0Suff w/o Lat.	2	70400	function	1.0	0.0	False
71.05	0.0	0Suff w/o Lat.	2	71050	man	1.0	1.0	True
71.509	0.0	1Suff w/o Lat.	12	71509	seasonal	1.0	0.0	False
72.084	0.0	2Suff w/o Lat.	22	72084	timeliness	1.0	1.0	True
72.584	0.0	0Suff NW	4	72584	instrove	0.0	1.0	False
73.009	0.0	2Suff PseudoStemNW	24	73009	orifadator	0.0	1.0	False
73.676	0.0	2Suff w/o Lat.	22	73676	definitely	1.0	1.0	True
74.534	0.0	0Suff NW	4	74534	gloo	0.0	1.0	False
74.993	0.0	2Suff RealStemNW	25	74993	fatantly	0.0	1.0	False
75.435	0.0	1Suff w/o Lat.	12	75435	furious	1.0	1.0	True
76.293	0.0	2Suff Composite	23	76293	biblical	1.0	1.0	True
76.91	0.0	0Suff w/o Lat.	2	76910	reason	1.0	0.0	False
77.785	0.0	0Suff NW	4	77785	preguct	0.0	1.0	False
78.419	0.0	2Suff RealStemNW	25	78419	globical	0.0	1.0	False
78.978	0.0	0Suff w/o Lat.	2	78978	delight	1.0	1.0	True
79.511	0.0	2Suff PseudoStemNW	24	79511	worchlessness	0.0	1.0	False
79.961	0.0	2Suff Composite	23	79961	affectation	1.0	1.0	True
80.486	0.0	1Suff PseudoStemNW	14	80486	affaidative	0.0	0.0	True
81.387	0.0	0Suff w/ Lat.	1	81387	subject	1.0	1.0	True
81.945	0.0	2Suff PseudoStemNW	24	81945	nerbousness	0.0	0.0	True
82.862	0.0	2Suff w/o Lat.	22	82862	globally	1.0	0.0	False
83.621	0.0	0Suff w/o Lat.	2	83621	execute	1.0	1.0	True
84.396	0.0	1Suff w/o Lat.	12	84396	heroic	1.0	1.0	True
84.838	0.0	1Suff w/o Lat.	12	84838	healthy	1.0	1.0	True
85.346	0.0	0Suff w/o Lat.	2	85346	material	1.0	1.0	True
85.78	0.0	2Suff w/ Lat.	21	85780	progressively	1.0	1.0	True
86.205	0.0	0Suff w/o Lat.	2	86205	transit	1.0	1.0	True
86.73	0.0	1Suff RealStemNW	15	86730	provocatful	0.0	0.0	True
87.547	0.0	0Suff w/ Lat.	1	87547	affect	1.0	1.0	True
88.172	0.0	2Suff w/o Lat.	22	88172	relatively	1.0	1.0	True
88.914	0.0	2Suff RealStemNW	25	88914	considerishly	0.0	1.0	False
89.764	0.0	1Suff w/o Lat.	12	89764	sterilize	1.0	1.0	True
90.198	0.0	2Suff PseudoStemNW	24	90198	imoatization	0.0	1.0	False
90.706	0.0	1Suff w/o Lat.	12	90706	guilty	1.0	1.0	True
91.49	0.0	2Suff RealStemNW	25	91490	ritualional	0.0	1.0	False
92.348	0.0	2Suff PseudoStemNW	24	92348	adstification	0.0	1.0	False
92.924	0.0	1Suff w/o Lat.	12	92924	transition	1.0	1.0	True
93.79	0.0	2Suff RealStemNW	25	93790	dramationist	0.0	1.0	False
94.549	0.0	2Suff w/o Lat.	22	94549	outwardly	1.0	0.0	False
95.991	0.0	1Suff PseudoStemNW	14	95991	restittable	0.0	1.0	False
96.716	0.0	1Suff RealStemNW	15	96716	nervate	0.0	1.0	False
97.975	0.0	1Suff w/o Lat.	12	97975	magnetic	1.0	0.0	False
99.075	0.0	0Suff w/o Lat.	2	99075	develop	1.0	0.0	False
100.334	0.0	2Suff w/o Lat.	22	100334	mythically	1.0	0.0	False
101.434	0.0	0Suff NW	4	101434	eltene	0.0	0.0	True
102.543	0.0	1Suff RealStemNW	15	102543	eany	0.0	1.0	False
103.035	0.0	2Suff Composite	23	103035	corporation	1.0	0.0	False
104.077	0.0	0Suff w/o Lat.	2	104077	govern	1.0	0.0	False
105.419	0.0	2Suff RealStemNW	25	105419	leadantate	0.0	1.0	False
106.911	0.0	1Suff w/o Lat.	12	106911	thoughtless	1.0	1.0	True
108.512	0.0	2Suff w/ Lat.	21	108512	conceptually	1.0	0.0	False
109.895	0.0	0Suff w/o Lat.	2	109895	health	1.0	0.0	False
110.929	0.0	0Suff w/o Lat.	2	110929	ritual	1.0	0.0	False
112.238	0.0	1Suff w/o Lat.	12	112238	notify	1.0	0.0	False
113.488	0.0	1Suff RealStemNW	15	113488	painable	0.0	1.0	False
115.064	0.0	0Suff NW	4	115064	mevion	0.0	1.0	False
116.106	0.0	1Suff w/o Lat.	12	116106	mobilize	1.0	0.0	False
117.181	0.0	1Suff RealStemNW	15	117181	relatful	0.0	1.0	False
118.49	0.0	1Suff w/o Lat.	12	118490	gracious	1.0	0.0	False
119.532	0.0	2Suff PseudoStemNW	24	119532	potarity	0.0	1.0	False
120.882	0.0	2Suff w/o Lat.	22	120882	originally	1.0	0.0	False
121.791	0.0	2Suff w/o Lat.	22	121791	transitional	1.0	0.0	False
122.941	0.0	2Suff w/o Lat.	22	122941	rhythmically	1.0	0.0	False
124.383	0.0	2Suff w/o Lat.	22	124383	immunization	1.0	0.0	False
125.484	0.0	2Suff PseudoStemNW	24	125484	utelessness	0.0	1.0	False
126.667	0.0	2Suff PseudoStemNW	24	126667	eltensively	0.0	1.0	False
127.784	0.0	2Suff PseudoStemNW	24	127784	inshemmation	0.0	1.0	False
128.793	0.0	0Suff NW	4	128793	corzess	0.0	1.0	False
129.86	0.0	1Suff PseudoStemNW	14	129860	fleedy	0.0	1.0	False
130.91	0.0	1Suff w/o Lat.	12	130910	adaptable	1.0	0.0	False
132.011	0.0	1Suff RealStemNW	15	132011	developward	0.0	1.0	False
133.103	0.0	2Suff PseudoStemNW	24	133103	pafferentiate	0.0	1.0	False
134.203	0.0	1Suff w/o Lat.	12	134203	relative	1.0	0.0	False
135.187	0.0	0Suff w/o Lat.	2	135187	cheer	1.0	0.0	False
136.137	0.0	2Suff w/o Lat.	22	136137	decisiveness	1.0	0.0	False
137.229	0.0	0Suff NW	4	137229	paffer	0.0	1.0	False
138.296	0.0	0Suff NW	4	138296	moel	0.0	1.0	False
139.213	0.0	2Suff w/o Lat.	22	139213	originality	1.0	0.0	False
140.205	0.0	0Suff w/ Lat.	1	140205	exhibit	1.0	0.0	False
141.297	0.0	2Suff RealStemNW	25	141297	sleepery	0.0	1.0	False
142.405	0.0	0Suff NW	4	142405	ewsib	0.0	1.0	False
143.356	0.0	2Suff PseudoStemNW	24	143356	rerativity	0.0	1.0	False
144.606	0.0	2Suff Composite	23	144606	dramatization	1.0	0.0	False
145.598	0.0	2Suff PseudoStemNW	24	145598	sorkener	0.0	1.0	False
147.974	0.0	1Suff w/o Lat.	12	147974	fatal	1.0	0.0	False
148.874	0.0	2Suff RealStemNW	25	148874	provocatfully	0.0	0.0	True
150.074	0.0	1Suff w/o Lat.	12	150074	basic	1.0	0.0	False
150.983	0.0	2Suff PseudoStemNW	24	150983	banically	0.0	1.0	False
152.008	0.0	1Suff RealStemNW	15	152008	financeic	0.0	1.0	False
152.95	0.0	2Suff w/o Lat.	22	152950	graciously	1.0	0.0	False
153.959	0.0	1Suff RealStemNW	15	153959	protectate	0.0	1.0	False
155.026	0.0	1Suff w/o Lat.	12	155026	commentate	1.0	0.0	False
156.043	0.0	1Suff w/o Lat.	12	156043	trivial	1.0	0.0	False
157.227	0.0	2Suff PseudoStemNW	24	157227	thackener	0.0	1.0	False
158.194	0.0	2Suff PseudoStemNW	24	158194	arfulness	0.0	1.0	False
159.327	0.0	1Suff RealStemNW	15	159327	successate	0.0	1.0	False
160.444	0.0	1Suff RealStemNW	15	160444	availless	0.0	1.0	False
161.42	0.0	1Suff PseudoStemNW	14	161420	imoatist	0.0	1.0	False
162.403	0.0	2Suff PseudoStemNW	24	162403	eetwardly	0.0	1.0	False
163.37	0.0	0Suff NW	4	163370	wate	0.0	1.0	False
164.362	0.0	2Suff w/o Lat.	22	164362	childishly	1.0	0.0	False
165.371	0.0	2Suff w/o Lat.	22	165371	racially	1.0	0.0	False
166.488	0.0	0Suff NW	4	166488	itcress	0.0	1.0	False
167.888	0.0	0Suff NW	4	167888	headth	0.0	1.0	False
168.905	0.0	1Suff PseudoStemNW	14	168905	halkless	0.0	1.0	False
169.822	0.0	2Suff PseudoStemNW	24	169822	orifadally	0.0	1.0	False
170.672	0.0	2Suff PseudoStemNW	24	170672	cidlical	0.0	1.0	False
171.606	0.0	2Suff w/o Lat.	22	171606	leadership	1.0	0.0	False
172.498	0.0	2Suff PseudoStemNW	24	172498	avoldability	0.0	1.0	False
173.69	0.0	2Suff PseudoStemNW	24	173690	ictressionism	0.0	1.0	False
174.549	0.0	0Suff NW	4	174549	mosime	0.0	1.0	False
175.441	0.0	1Suff w/ Lat.	11	175441	impression	1.0	0.0	False
176.349	0.0	0Suff NW	4	176349	rerard	0.0	1.0	False
177.366	0.0	2Suff w/o Lat.	22	177366	frightfully	1.0	0.0	False
179.0	0.0	2Suff w/o Lat.	22	179000	usefully	1.0	0.0	False
180.05	0.0	2Suff w/o Lat.	22	180050	basically	1.0	0.0	False
181.051	0.0	1Suff PseudoStemNW	14	181051	etilor	0.0	1.0	False
182.001	0.0	1Suff RealStemNW	15	182001	logicic	0.0	1.0	False
183.101	0.0	1Suff PseudoStemNW	14	183101	goulty	0.0	1.0	False
184.052	0.0	0Suff w/o Lat.	2	184052	fright	1.0	0.0	False
185.185	0.0	0Suff NW	4	185185	miccess	0.0	1.0	False
186.152	0.0	0Suff w/o Lat.	2	186152	hero	1.0	0.0	False
187.169	0.0	1Suff w/o Lat.	12	187169	distinctive	1.0	0.0	False
188.253	0.0	2Suff PseudoStemNW	24	188253	carbisalistic	0.0	1.0	False
189.237	0.0	1Suff RealStemNW	15	189237	isolatate	0.0	0.0	True
190.237	0.0	2Suff w/o Lat.	22	190237	sleepily	1.0	0.0	False
191.321	0.0	0Suff NW	4	191321	pask	0.0	1.0	False
192.371	0.0	1Suff PseudoStemNW	14	192371	awdition	0.0	1.0	False
193.296	0.0	1Suff PseudoStemNW	14	193296	paskful	0.0	1.0	False
194.188	0.0	0Suff w/o Lat.	2	194188	glee	1.0	1.0	True
195.18	0.0	1Suff PseudoStemNW	14	195180	urmerly	0.0	1.0	False
196.139	0.0	2Suff PseudoStemNW	24	196139	esdybitionism	0.0	1.0	False
197.072	0.0	0Suff NW	4	197072	glibe	0.0	1.0	False
197.973	0.0	1Suff PseudoStemNW	14	197973	arful	0.0	1.0	False
198.906	0.0	2Suff PseudoStemNW	24	198906	stumiality	0.0	1.0	False
199.848	0.0	1Suff w/o Lat.	12	199848	friendly	1.0	0.0	False
200.79	0.0	1Suff w/o Lat.	12	200790	worthless	1.0	0.0	False
201.815	0.0	1Suff PseudoStemNW	14	201815	eetward	0.0	1.0	False
202.724	0.0	2Suff w/o Lat.	22	202724	thoughtlessly	1.0	0.0	False
204.266	0.0	2Suff w/o Lat.	22	204266	directorship	1.0	0.0	False
205.292	0.0	0Suff w/o Lat.	2	205292	essence	1.0	0.0	False
206.875	0.0	1Suff PseudoStemNW	14	206875	prowertion	0.0	1.0	False
208.117	0.0	1Suff RealStemNW	15	208117	useive	0.0	1.0	False
209.009	0.0	2Suff w/ Lat.	21	209009	predictably	1.0	1.0	True
210.535	0.0	0Suff NW	4	210535	rame	0.0	1.0	False
211.435	0.0	2Suff w/o Lat.	22	211435	editorial	1.0	0.0	False
212.902	0.0	1Suff w/o Lat.	12	212902	soulful	1.0	0.0	False
213.978	0.0	2Suff RealStemNW	25	213978	confessality	0.0	1.0	False
215.086	0.0	2Suff Composite	23	215086	commutation	1.0	0.0	False
216.17	0.0	1Suff PseudoStemNW	14	216170	coppentate	0.0	1.0	False
217.662	0.0	1Suff w/o Lat.	12	217662	hopeless	1.0	0.0	False
218.629	0.0	2Suff RealStemNW	25	218629	moistantly	0.0	1.0	False
219.721	0.0	1Suff PseudoStemNW	14	219721	orifadal	0.0	1.0	False
220.646	0.0	1Suff PseudoStemNW	14	220646	fleepy	0.0	1.0	False
221.738	0.0	1Suff PseudoStemNW	14	221738	falumful	0.0	1.0	False
222.73	0.0	0Suff w/ Lat.	1	222730	instruct	1.0	0.0	False
223.956	0.0	1Suff w/o Lat.	12	223956	financial	1.0	0.0	False
225.081	0.0	0Suff NW	4	225081	eet	0.0	1.0	False
225.956	0.0	2Suff PseudoStemNW	24	225956	vefation	0.0	1.0	False
226.898	0.0	0Suff NW	4	226898	rumic	0.0	1.0	False
227.857	0.0	2Suff w/o Lat.	22	227857	easily	1.0	0.0	False
228.824	0.0	1Suff PseudoStemNW	14	228824	chansotion	0.0	1.0	False
229.991	0.0	2Suff RealStemNW	25	229991	accidentical	0.0	0.0	True
231.124	0.0	2Suff RealStemNW	25	231124	futurional	0.0	1.0	False
232.125	0.0	2Suff PseudoStemNW	24	232125	chirdishly	0.0	1.0	False
233.008	0.0	2Suff w/o Lat.	22	233008	worthlessness	1.0	0.0	False
234.217	0.0	2Suff w/o Lat.	22	234217	cheerfully	1.0	0.0	False
235.834	0.0	2Suff w/ Lat.	21	235834	extensively	1.0	0.0	False
237.018	0.0	1Suff RealStemNW	15	237018	manen	0.0	1.0	False
238.06	0.0	1Suff RealStemNW	15	238060	basly	0.0	1.0	False
239.135	0.0	2Suff PseudoStemNW	24	239135	concuchualize	0.0	1.0	False
240.127	0.0	1Suff w/o Lat.	12	240127	substantial	1.0	0.0	False
241.219	0.0	1Suff PseudoStemNW	14	241219	nolify	0.0	1.0	False
242.403	0.0	2Suff w/o Lat.	22	242403	commentator	1.0	0.0	False
243.562	0.0	2Suff RealStemNW	25	243562	conceptuical	0.0	1.0	False
244.979	0.0	1Suff w/o Lat.	12	244979	different	1.0	0.0	False
245.987	0.0	1Suff w/o Lat.	12	245987	poetic	1.0	0.0	False
247.121	0.0	0Suff w/o Lat.	2	247121	order	1.0	0.0	False
248.313	0.0	1Suff w/o Lat.	12	248313	government	1.0	0.0	False
249.288	0.0	2Suff PseudoStemNW	24	249288	concolerably	0.0	1.0	False
250.572	0.0	1Suff RealStemNW	15	250572	sterilist	0.0	1.0	False
251.456	0.0	2Suff w/o Lat.	22	251456	governmental	1.0	1.0	True
252.506	0.0	0Suff NW	4	252506	mistile	0.0	1.0	False
253.631	0.0	0Suff w/o Lat.	2	253631	adapt	1.0	0.0	False
254.632	0.0	1Suff PseudoStemNW	14	254632	betiecable	0.0	1.0	False
255.557	0.0	2Suff w/o Lat.	22	255557	polarity	1.0	1.0	True
256.516	0.0	0Suff w/o Lat.	2	256516	profit	1.0	0.0	False
257.483	0.0	1Suff RealStemNW	15	257483	confessate	0.0	1.0	False
258.525	0.0	1Suff w/o Lat.	12	258525	agreeable	1.0	0.0	False
259.608	0.0	1Suff w/o Lat.	12	259608	realist	1.0	0.0	False
261.042	0.0	1Suff w/o Lat.	12	261042	isolation	1.0	0.0	False
262.017	0.0	1Suff RealStemNW	15	262017	architectian	0.0	1.0	False
263.234	0.0	2Suff PseudoStemNW	24	263234	perburbation	0.0	1.0	False
264.568	0.0	1Suff RealStemNW	15	264568	polit	0.0	1.0	False
265.71	0.0	2Suff w/o Lat.	22	265710	executioner	1.0	0.0	False
267.469	0.0	2Suff PseudoStemNW	24	267469	allidation	0.0	1.0	False
269.203	0.0	0Suff NW	4	269203	imoat	0.0	1.0	False
270.228	0.0	0Suff NW	4	270228	manhet	0.0	1.0	False
271.362	0.0	0Suff w/o Lat.	2	271362	time	1.0	0.0	False
272.296	0.0	1Suff w/o Lat.	12	272296	ethical	1.0	0.0	False
273.354	0.0	0Suff w/o Lat.	2	273354	triumph	1.0	0.0	False
274.538	0.0	2Suff RealStemNW	25	274538	polioner	0.0	1.0	False
275.513	0.0	0Suff w/o Lat.	2	275513	ceremony	1.0	0.0	False
278.372	0.0	2Suff PseudoStemNW	24	278372	coppentator	0.0		False
280.781	0.0	0Suff NW	4	280781	nerbs	0.0	1.0	False
282.29	0.0	0Suff NW	4	282290	lenction	0.0	1.0	False
283.216	0.0	1Suff RealStemNW	15	283216	extensful	0.0	1.0	False
284.374	0.0	0Suff NW	4	284374	pote	0.0	1.0	False
285.308	0.0	2Suff PseudoStemNW	24	285308	denboderation	0.0	1.0	False
286.342	0.0	1Suff PseudoStemNW	14	286342	degorate	0.0	1.0	False
287.392	0.0	2Suff w/o Lat.	22	287392	orderliness	1.0	0.0	False
288.684	0.0	2Suff w/ Lat.	21	288684	impressionism	1.0	0.0	False
290.109	0.0	1Suff RealStemNW	15	290109	competitful	0.0	1.0	False
291.785	0.0	0Suff NW	4	291785	pead	0.0	1.0	False
292.743	0.0	1Suff w/o Lat.	12	292743	sleepy	1.0	0.0	False
293.66	0.0	2Suff PseudoStemNW	24	293660	dehonitive	0.0	1.0	False
294.511	0.0	0Suff NW	4	294511	girern	0.0	1.0	False
295.369	0.0	0Suff NW	4	295369	artlitack	0.0	1.0	False
296.278	0.0	0Suff w/o Lat.	2	296278	logic	1.0	0.0	False
297.17	0.0	2Suff RealStemNW	25	297170	believator	0.0	1.0	False
298.062	0.0	1Suff PseudoStemNW	14	298062	fralatic	0.0	1.0	False
298.954	0.0	2Suff w/o Lat.	22	298954	editorship	1.0	0.0	False
299.921	0.0	1Suff w/o Lat.	12	299921	addition	1.0	1.0	True
300.854	0.0	2Suff w/o Lat.	22	300854	realistic	1.0	0.0	False
301.888	0.0	0Suff NW	4	301888	eant	0.0	1.0	False
302.788	0.0	1Suff w/o Lat.	12	302788	wakeful	1.0	1.0	True
304.205	0.0	2Suff w/o Lat.	22	304205	aimlessly	1.0	0.0	False
305.314	0.0	1Suff PseudoStemNW	14	305314	mosimize	0.0	1.0	False
306.256	0.0	0Suff w/o Lat.	2	306256	hope	1.0	0.0	False
307.181	0.0	1Suff w/o Lat.	12	307181	leader	1.0	0.0	False
308.19	0.0	0Suff NW	4	308190	devade	0.0	1.0	False
309.107	0.0	2Suff w/ Lat.	21	309107	mistakenly	1.0	0.0	False
310.207	0.0	1Suff RealStemNW	15	310207	immunist	0.0	1.0	False
311.941	0.0	2Suff PseudoStemNW	24	311941	urhanization	0.0	1.0	False
313.725	0.0	1Suff w/o Lat.	12	313725	ritualist	1.0	1.0	True
315.067	0.0	1Suff w/o Lat.	12	315067	gleeful	1.0	1.0	True
316.092	0.0	2Suff RealStemNW	25	316092	hopeively	0.0	1.0	False
317.334	0.0	2Suff RealStemNW	25	317334	subjectously	0.0	1.0	False
318.31	0.0	2Suff RealStemNW	25	318310	friendionist	0.0	1.0	False
319.477	0.0	0Suff w/o Lat.	2	319477	decor	1.0	0.0	False
320.51	0.0	2Suff RealStemNW	25	320510	harmiously	0.0	1.0	False
321.444	0.0	2Suff Composite	23	321444	vitalization	1.0	1.0	True
322.486	0.0	0Suff NW	4	322486	peece	0.0	1.0	False
323.728	0.0	2Suff w/o Lat.	22	323728	ritualistic	1.0	1.0	True
324.762	0.0	0Suff NW	4	324762	pasnet	0.0	1.0	False
325.662	0.0	0Suff w/o Lat.	2	325662	guilt	1.0	0.0	False
326.662	0.0	1Suff w/o Lat.	12	326662	forgetful	1.0	0.0	False
327.771	0.0	0Suff w/ Lat.	1	327771	avail	1.0	0.0	False
328.713	0.0	0Suff NW	4	328713	cunerogy	0.0	1.0	False
329.738	0.0	0Suff w/o Lat.	2	329738	margin	1.0	0.0	False
330.722	0.0	0Suff w/o Lat.	2	330722	race	1.0	0.0	False
331.614	0.0	2Suff Composite	23	331614	pasteurization	1.0	1.0	True
332.581	0.0	2Suff w/o Lat.	22	332581	manliness	1.0	1.0	True
333.781	0.0	0Suff w/ Lat.	1	333781	predict	1.0	0.0	False
334.932	0.0	2Suff RealStemNW	25	334932	glorifilessly	0.0	1.0	False
336.465	0.0	2Suff w/ Lat.	21	336465	affectionate	1.0	0.0	False
337.607	0.0	2Suff PseudoStemNW	24	337607	paftiality	0.0	1.0	False
338.691	0.0	0Suff w/o Lat.	2	338691	substance	1.0	0.0	False
339.866	0.0	2Suff w/o Lat.	22	339866	thickener	1.0	1.0	True
341.108	0.0	2Suff w/o Lat.	22	341108	forgetfulness	1.0	0.0	False
342.35	0.0	1Suff w/o Lat.	12	342350	moisture	1.0	0.0	False
343.342	0.0	1Suff PseudoStemNW	14	343342	analkable	0.0	1.0	False
344.343	0.0	1Suff w/o Lat.	12	344343	awful	1.0	0.0	False
345.285	0.0	2Suff PseudoStemNW	24	345285	deabonably	0.0	1.0	False
346.277	0.0	2Suff PseudoStemNW	24	346277	desalkation	0.0	1.0	False
347.269	0.0	2Suff w/o Lat.	22	347269	peacefully	1.0	0.0	False
348.144	0.0	1Suff w/o Lat.	12	348144	assassinate	1.0	0.0	False
349.311	0.0	0Suff w/o Lat.	2	349311	pain	1.0	0.0	False
350.261	0.0	2Suff RealStemNW	25	350261	deadionist	0.0	1.0	False
351.237	0.0	0Suff NW	4	351237	perburve	0.0	1.0	False
352.67	0.0	1Suff w/o Lat.	12	352670	ceremonial	1.0	0.0	False
353.662	0.0	0Suff w/o Lat.	2	353662	use	1.0	0.0	False
354.779	0.0	0Suff NW	4	354779	falget	0.0	1.0	False
355.73	0.0	0Suff NW	4	355730	dehone	0.0	1.0	False
356.655	0.0	2Suff w/o Lat.	22	356655	occasionally	1.0	0.0	False
357.672	0.0	1Suff w/ Lat.	11	357672	projection	1.0	0.0	False
358.664	0.0	2Suff RealStemNW	25	358664	decisishness	0.0	1.0	False
359.631	0.0	1Suff PseudoStemNW	14	359631	ewsibal	0.0	1.0	False
360.489	0.0	2Suff RealStemNW	25	360489	musicical	0.0	0.0	True
361.423	0.0	1Suff w/o Lat.	12	361423	outward	1.0	0.0	False
362.44	0.0	2Suff w/o Lat.	22	362440	partiality	1.0	0.0	False
363.424	0.0	0Suff w/o Lat.	2	363424	valid	1.0	0.0	False
364.341	0.0	2Suff PseudoStemNW	24	364341	hodelessness	0.0	1.0	False
365.424	0.0	2Suff w/o Lat.	22	365424	relational	1.0	0.0	False
366.625	0.0	1Suff w/o Lat.	12	366625	reasonable	1.0	0.0	False
367.625	0.0	1Suff PseudoStemNW	14	367625	mowthure	0.0	1.0	False
368.525	0.0	1Suff w/o Lat.	12	368525	designate	1.0	0.0	False
369.684	0.0	0Suff w/o Lat.	2	369684	season	1.0	0.0	False
370.626	0.0	0Suff NW	4	370626	frala	0.0	1.0	False
371.543	0.0	0Suff NW	4	371543	fleed	0.0	1.0	False
372.668	0.0	2Suff RealStemNW	25	372668	familiately	0.0	0.0	True
373.693	0.0	2Suff Composite	23	373693	allegation	1.0	0.0	False
374.819	0.0	2Suff PseudoStemNW	24	374819	snightfully	0.0	1.0	False
376.003	0.0	0Suff NW	4	376003	pipsist	0.0	1.0	False
376.861	0.0	2Suff w/o Lat.	22	376861	familiarity	1.0	0.0	False
377.903	0.0	2Suff PseudoStemNW	24	377903	paftially	0.0	1.0	False
378.945	0.0	1Suff PseudoStemNW	14	378945	rhylphic	0.0	1.0	False
379.829	0.0	2Suff PseudoStemNW	24	379829	gloofully	0.0	1.0	False
380.721	0.0	2Suff PseudoStemNW	24	380721	gramiously	0.0	1.0	False
381.604	0.0	2Suff w/o Lat.	22	381604	provocatively	1.0	1.0	True
382.521	0.0	2Suff PseudoStemNW	24	382521	falumfilly	0.0	1.0	False
383.48	0.0	0Suff NW	4	383480	hyth	0.0	1.0	False
384.472	0.0	1Suff w/o Lat.	12	384472	statistical	1.0	0.0	False
385.522	0.0	0Suff w/o Lat.	2	385522	family	1.0	0.0	False
386.497	0.0	0Suff NW	4	386497	steadth	0.0	1.0	False
387.548	0.0	1Suff w/o Lat.	12	387548	architecture	1.0	0.0	False
388.573	0.0	2Suff w/o Lat.	22	388573	profitably	1.0	0.0	False
389.798	0.0	2Suff RealStemNW	25	389798	impressliness	0.0	1.0	False
391.091	0.0	1Suff w/o Lat.	12	391091	periodic	1.0	0.0	False
392.183	0.0	2Suff w/o Lat.	22	392183	cheerfulness	1.0	0.0	False
393.275	0.0	2Suff PseudoStemNW	24	393275	rhylphically	0.0	1.0	False
394.241	0.0	2Suff RealStemNW	25	394241	persuasfully	0.0	1.0	False
395.775	0.0	1Suff w/o Lat.	12	395775	exhaustive	1.0	0.0	False
397.092	0.0	2Suff RealStemNW	25	397092	predictator	0.0	1.0	False
398.259	0.0	2Suff PseudoStemNW	24	398259	stoteldionist	0.0	1.0	False
399.126	0.0	0Suff NW	4	399126	uspasion	0.0	1.0	False
400.127	0.0	0Suff NW	4	400127	fleep	0.0	1.0	False
401.119	0.0	2Suff RealStemNW	25	401119	isolatmental	0.0	1.0	False
401.961	0.0	0Suff NW	4	401961	atrie	0.0	1.0	False
402.861	0.0	2Suff Composite	23	402861	autistic	1.0	1.0	True
403.878	0.0	2Suff PseudoStemNW	24	403878	nerbously	0.0	1.0	False
404.82	0.0	2Suff PseudoStemNW	24	404820	cunerogially	0.0	1.0	False
409.138	0.0	1Suff w/o Lat.	12	409138	partial	1.0	0.0	False
410.113	0.0	0Suff NW	4	410113	snight	0.0	1.0	False
411.113	0.0	0Suff NW	4	411113	meabon	0.0	1.0	False
412.239	0.0	1Suff PseudoStemNW	14	412239	headthy	0.0	1.0	False
413.172	0.0	2Suff RealStemNW	25	413172	isolatliness	0.0	1.0	False
414.281	0.0	1Suff w/o Lat.	12	414281	protection	1.0	0.0	False
415.198	0.0	2Suff w/o Lat.	22	415198	magnetically	1.0	1.0	True
416.999	0.0	2Suff w/o Lat.	22	416999	painlessly	1.0	0.0	False
417.965	0.0	1Suff PseudoStemNW	14	417965	pavediadist	0.0	1.0	False
418.916	0.0	2Suff RealStemNW	25	418916	transitality	0.0	1.0	False
420.016	0.0	2Suff w/o Lat.	22	420016	guiltiness	1.0	1.0	True
421.958	0.0	2Suff Composite	23	421958	militarization	1.0	0.0	False
423.417	0.0	2Suff w/o Lat.	22	423417	considerately	1.0	0.0	False
424.734	0.0	1Suff RealStemNW	15	424734	delightive	0.0	1.0	False
426.035	0.0	0Suff NW	4	426035	halk	0.0	1.0	False
427.152	0.0	2Suff RealStemNW	25	427152	soulively	0.0	1.0	False
428.144	0.0	0Suff NW	4	428144	nole	0.0	1.0	False
429.144	0.0	1Suff PseudoStemNW	14	429144	deabonable	0.0	1.0	False
430.053	0.0	2Suff PseudoStemNW	24	430053	instrovtional	0.0	1.0	False
431.036	0.0	1Suff PseudoStemNW	14	431036	devadive	0.0	1.0	False
431.845	0.0	0Suff w/o Lat.	2	431845	educate	1.0	0.0	False
432.82	0.0	2Suff w/o Lat.	22	432820	confessional	1.0	0.0	False
434.195	0.0	0Suff w/o Lat.	2	434195	relate	1.0	0.0	False
435.287	0.0	2Suff w/o Lat.	22	435287	seasonally	1.0	0.0	False
436.179	0.0	2Suff Composite	23	436179	amplification	1.0	0.0	False
437.263	0.0	0Suff NW	4	437263	prowert	0.0	1.0	False
438.272	0.0	1Suff PseudoStemNW	14	438272	tipely	0.0	1.0	False
439.172	0.0	2Suff w/o Lat.	22	439172	competitively	1.0	0.0	False
440.306	0.0	0Suff NW	4	440306	diruce	0.0	1.0	False
441.298	0.0	2Suff w/o Lat.	22	441298	functionally	1.0	0.0	False
442.298	0.0	2Suff RealStemNW	25	442298	commutfully	0.0	0.0	True
443.848	0.0	2Suff RealStemNW	25	443848	revitalilessly	0.0	1.0	False
445.232	0.0	2Suff w/o Lat.	22	445232	financially	1.0	0.0	False
446.208	0.0	0Suff NW	4	446208	wroty	0.0	1.0	False
447.233	0.0	0Suff NW	4	447233	faulm	0.0	1.0	False
448.091	0.0	1Suff RealStemNW	15	448091	instructate	0.0	1.0	False
449.3	0.0	2Suff Composite	23	449300	mechanistic	1.0	1.0	True
450.209	0.0	1Suff w/o Lat.	12	450209	easy	1.0	0.0	False
451.109	0.0	1Suff RealStemNW	15	451109	heroal	0.0	1.0	False
452.159	0.0	1Suff w/o Lat.	12	452159	thankful	1.0	0.0	False
453.118	0.0	1Suff w/o Lat.	12	453118	painless	1.0	0.0	False
454.127	0.0	1Suff RealStemNW	15	454127	designion	0.0	1.0	False
455.302	0.0	1Suff RealStemNW	15	455302	childory	0.0	1.0	False
456.261	0.0	0Suff NW	4	456261	sork	0.0	1.0	False
457.203	0.0	2Suff PseudoStemNW	24	457203	headthily	0.0	1.0	False
458.145	0.0	1Suff w/o Lat.	12	458145	restless	1.0	0.0	False
459.212	0.0	0Suff NW	4	459212	etil	0.0	1.0	False
460.187	0.0	0Suff NW	4	460187	appigent	0.0	1.0	False
461.195	0.0	1Suff w/o Lat.	12	461195	marginal	1.0	0.0	False
462.312	0.0	1Suff PseudoStemNW	14	462312	farsen	0.0	1.0	False
463.43	0.0	2Suff w/o Lat.	22	463430	trivialize	1.0	0.0	False
464.53	0.0	2Suff Composite	23	464530	satirical	1.0	1.0	True
465.647	0.0	1Suff PseudoStemNW	14	465647	lenctional	0.0	1.0	False
466.739	0.0	1Suff w/o Lat.	12	466739	manly	1.0	0.0	False
467.814	0.0	2Suff PseudoStemNW	24	467814	mosimization	0.0	1.0	False
468.806	0.0	1Suff PseudoStemNW	14	468806	distawksive	0.0	1.0	False
469.656	0.0	1Suff PseudoStemNW	14	469656	snoughtless	0.0	1.0	False
470.498	0.0	0Suff w/o Lat.	2	470498	nerve	1.0	0.0	False
471.474	0.0	2Suff RealStemNW	25	471474	fatalize	0.0	0.0	True
472.749	0.0	0Suff NW	4	472749	tipe	0.0	1.0	False
473.833	0.0	0Suff NW	4	473833	chier	0.0	1.0	False
474.75	0.0	1Suff PseudoStemNW	14	474750	wrotify	0.0	1.0	False
475.75	0.0	2Suff w/o Lat.	22	475750	accidentally	1.0	0.0	False
477.175	0.0	0Suff NW	4	477175	ais	0.0	0.0	True
478.109	0.0	0Suff NW	4	478109	tuty	0.0	1.0	False
479.118	0.0	1Suff w/o Lat.	12	479118	idealize	1.0	0.0	False
480.135	0.0	2Suff RealStemNW	25	480135	peaceively	0.0	1.0	False
481.318	0.0	2Suff w/o Lat.	22	481318	awfully	1.0	0.0	False
482.36	0.0	0Suff w/o Lat.	2	482360	globe	1.0	0.0	False
483.402	0.0	0Suff w/o Lat.	2	483402	thank	1.0	0.0	False
484.361	0.0	1Suff w/o Lat.	12	484361	intensive	1.0	1.0	True
485.328	0.0	2Suff w/o Lat.	22	485328	leaderless	1.0	1.0	True
486.778	0.0	0Suff w/o Lat.	2	486778	myth	1.0	0.0	False
487.879	0.0	2Suff RealStemNW	25	487879	substanceical	0.0	1.0	False
489.037	0.0	0Suff w/o Lat.	2	489037	poet	1.0	0.0	False
490.188	0.0	2Suff RealStemNW	25	490188	raceical	0.0	1.0	False
491.171	0.0	1Suff w/o Lat.	12	491171	difference	1.0	0.0	False
492.188	0.0	2Suff RealStemNW	25	492188	educatality	0.0	1.0	False
493.664	0.0	2Suff w/ Lat.	21	493664	instructional	1.0	1.0	True
494.864	0.0	1Suff w/o Lat.	12	494864	musical	1.0	0.0	False
495.873	0.0	0Suff NW	4	495873	ippune	0.0	1.0	False
496.765	0.0	2Suff PseudoStemNW	24	496765	pasklessly	0.0	1.0	False
497.715	0.0	0Suff w/o Lat.	2	497715	intense	1.0	0.0	False
498.674	0.0	2Suff w/o Lat.	22	498674	isolationism	1.0	1.0	True
500.441	0.0	1Suff PseudoStemNW	14	500441	sorken	0.0	1.0	False
501.383	0.0	1Suff PseudoStemNW	14	501383	appigental	0.0	1.0	False
502.291	0.0	2Suff w/o Lat.	22	502291	differentiate	1.0	0.0	False
503.617	0.0	2Suff w/o Lat.	22	503617	architectural	1.0	0.0	False
504.909	0.0	2Suff RealStemNW	25	504909	aimiously	0.0	1.0	False
506.184	0.0	0Suff w/o Lat.	2	506184	lead	1.0	0.0	False
507.218	0.0	2Suff w/o Lat.	22	507218	triviality	1.0	0.0	False
508.485	0.0	2Suff w/o Lat.	22	508485	soulfully	1.0	1.0	True
509.902	0.0	0Suff w/o Lat.	2	509902	sterile	1.0	0.0	False
511.753	0.0	2Suff PseudoStemNW	24	511753	mistilenly	0.0	1.0	False
512.803	0.0	0Suff w/o Lat.	2	512803	real	1.0	0.0	False
513.728	0.0	1Suff RealStemNW	15	513728	assassinion	0.0	1.0	False
514.945	0.0	1Suff w/o Lat.	12	514945	notable	1.0	0.0	False
516.012	0.0	2Suff w/o Lat.	22	516012	notably	1.0	0.0	False
517.113	0.0	1Suff w/o Lat.	12	517113	considerable	1.0	0.0	False
518.18	0.0	0Suff NW	4	518180	orifad	0.0	1.0	False
519.13	0.0	1Suff w/o Lat.	12	519130	marketable	1.0	0.0	False
520.572	0.0	0Suff w/ Lat.	1	520572	concept	1.0	0.0	False
521.581	0.0	2Suff PseudoStemNW	24	521581	uspasionally	0.0	1.0	False
522.998	0.0	2Suff RealStemNW	25	522998	ailistic	0.0	1.0	False
524.015	0.0	0Suff NW	4	524015	chotintic	0.0	1.0	False
524.998	0.0	2Suff PseudoStemNW	24	524998	lenctionally	0.0	1.0	False
525.949	0.0	0Suff NW	4	525949	figic	0.0	1.0	False
526.857	0.0	0Suff w/o Lat.	2	526857	define	1.0	0.0	False
527.858	0.0	2Suff RealStemNW	25	527858	periodally	0.0	1.0	False
529.308	0.0	1Suff PseudoStemNW	14	529308	grameful	0.0	1.0	False
530.383	0.0	2Suff PseudoStemNW	24	530383	cossetitively	0.0	1.0	False
531.392	0.0	2Suff Composite	23	531392	quotation	1.0	0.0	False
532.593	0.0	0Suff w/o Lat.	2	532593	awe	1.0	0.0	False
533.793	0.0	2Suff PseudoStemNW	24	533793	prebitably	0.0	1.0	False
535.193	0.0	2Suff RealStemNW	25	535193	dramatilessly	0.0	1.0	False
536.244	0.0	2Suff PseudoStemNW	24	536244	pafleurization	0.0	1.0	False
537.336	0.0	0Suff NW	4	537336	worch	0.0	1.0	False
538.419	0.0	0Suff NW	4	538419	rhylph	0.0	1.0	False
539.37	0.0	2Suff RealStemNW	25	539370	manionist	0.0	1.0	False
545.28	0.0	1Suff PseudoStemNW	14	545280	preguctable	0.0	1.0	False
546.28	0.0	0Suff w/ Lat.	1	546280	progress	1.0	0.0	False
547.23	0.0	2Suff w/o Lat.	22	547230	fatally	1.0	0.0	False
548.414	0.0	0Suff w/o Lat.	2	548414	fury	1.0	0.0	False
549.439	0.0	2Suff RealStemNW	25	549439	notural	0.0	1.0	False
550.44	0.0	1Suff RealStemNW	15	550440	marginic	0.0	1.0	False
551.657	0.0	2Suff Composite	23	551657	simplification	1.0	0.0	False
552.632	0.0	1Suff w/o Lat.	12	552632	definite	1.0	0.0	False
553.657	0.0	0Suff NW	4	553657	ute	0.0	1.0	False
554.758	0.0	1Suff w/o Lat.	12	554758	persuasive	1.0	0.0	False
555.825	0.0	2Suff w/ Lat.	21	555825	availability	1.0	0.0	False
556.9	0.0	2Suff w/o Lat.	22	556900	directional	1.0	0.0	False
558.009	0.0	1Suff w/o Lat.	12	558009	materialist	1.0	0.0	False
559.126	0.0	2Suff RealStemNW	25	559126	relateness	0.0	1.0	False
560.284	0.0	1Suff PseudoStemNW	14	560284	vimidate	0.0	1.0	False
561.418	0.0	2Suff RealStemNW	25	561418	agreeally	0.0	1.0	False
562.76	0.0	1Suff w/o Lat.	12	562760	frightful	1.0	0.0	False
563.969	0.0	2Suff PseudoStemNW	24	563969	diructorship	0.0	1.0	False
565.086	0.0	1Suff PseudoStemNW	14	565086	subplencial	0.0	1.0	False
566.086	0.0	1Suff RealStemNW	15	566086	forgetive	0.0	1.0	False
567.12	0.0	0Suff NW	4	567120	priueur	0.0	1.0	False
567.987	0.0	2Suff w/o Lat.	22	567987	restlessness	1.0	1.0	True
568.879	0.0	2Suff RealStemNW	25	568879	categorally	0.0	1.0	False
570.196	0.0	0Suff w/o Lat.	2	570196	differ	1.0	1.0	True
571.154	0.0	2Suff PseudoStemNW	24	571154	peadership	0.0	1.0	False
572.396	0.0	0Suff NW	4	572396	stoteld	0.0	1.0	False
573.255	0.0	0Suff NW	4	573255	affaid	0.0	1.0	False
574.164	0.0	0Suff NW	4	574164	eserete	0.0	1.0	False
575.047	0.0	0Suff NW	4	575047	musual	0.0	1.0	False
576.006	0.0	2Suff PseudoStemNW	24	576006	stumialize	0.0	1.0	False
576.973	0.0	0Suff w/o Lat.	2	576973	thick	1.0	0.0	False
578.007	0.0	0Suff NW	4	578007	thiend	0.0	1.0	False
578.957	0.0	0Suff w/o Lat.	2	578957	fate	1.0	0.0	False
580.057	0.0	0Suff w/o Lat.	2	580057	believe	1.0	0.0	False
581.049	0.0	1Suff RealStemNW	15	581049	persistify	0.0	1.0	False
581.983	0.0	2Suff w/o Lat.	22	581983	furiously	1.0	0.0	False
583.375	0.0	1Suff RealStemNW	15	583375	mistaker	0.0	1.0	False
584.433	0.0	1Suff PseudoStemNW	14	584433	essoilial	0.0	1.0	False
585.5	0.0	1Suff w/o Lat.	12	585500	harmless	1.0	0.0	False
586.618	0.0	0Suff w/o Lat.	2	586618	part	1.0	0.0	False
587.71	0.0	0Suff NW	4	587710	chansot	0.0	1.0	False
589.168	0.0	0Suff NW	4	589168	concuch	0.0	1.0	False
590.235	0.0	0Suff w/o Lat.	2	590235	ease	1.0	0.0	False
591.327	0.0	1Suff w/ Lat.	11	591327	progressive	1.0	0.0	False
592.394	0.0	2Suff PseudoStemNW	24	592394	thashfulness	0.0	1.0	False
593.661	0.0	2Suff w/ Lat.	21	593661	persistently	1.0	0.0	False
594.878	0.0	1Suff w/o Lat.	12	594878	essential	1.0	0.0	False
596.062	0.0	2Suff w/ Lat.	21	596062	exhibitionism	1.0	0.0	False
597.413	0.0	0Suff w/o Lat.	2	597413	decide	1.0	0.0	False
598.454	0.0	1Suff w/o Lat.	12	598454	logical	1.0	0.0	False
599.43	0.0	1Suff w/o Lat.	12	599430	provocative	1.0	0.0	False
600.689	0.0	2Suff PseudoStemNW	24	600689	falality	0.0	0.0	True
601.972	0.0	1Suff RealStemNW	15	601972	marketless	0.0	1.0	False
603.181	0.0	2Suff w/ Lat.	21	603181	impressionist	1.0	1.0	True
604.381	0.0	2Suff RealStemNW	25	604381	marginical	0.0	1.0	False
605.34	0.0	2Suff PseudoStemNW	24	605340	otification	0.0	1.0	False
606.257	0.0	0Suff w/o Lat.	2	606257	rest	1.0	0.0	False
607.149	0.0	0Suff w/o Lat.	2	607149	comment	1.0	0.0	False
608.074	0.0	0Suff NW	4	608074	hode	0.0	1.0	False
609.066	0.0	1Suff PseudoStemNW	14	609066	priueurant	0.0	1.0	False
609.883	0.0	0Suff w/o Lat.	2	609883	guard	1.0	0.0	False
610.933	0.0	1Suff PseudoStemNW	14	610933	glibal	0.0	1.0	False
611.867	0.0	2Suff w/o Lat.	22	611867	awfulness	1.0	0.0	False
613.084	0.0	2Suff PseudoStemNW	24	613084	affallation	0.0	1.0	False
614.051	0.0	2Suff w/o Lat.	22	614051	softener	1.0	1.0	True
615.385	0.0	0Suff NW	4	615385	subplence	0.0	1.0	False
616.452	0.0	0Suff NW	4	616452	coppent	0.0	1.0	False
617.394	0.0	2Suff PseudoStemNW	24	617394	awditional	0.0	1.0	False
618.394	0.0	1Suff PseudoStemNW	14	618394	snightful	0.0	1.0	False
619.286	0.0	1Suff PseudoStemNW	14	619286	thashful	0.0	1.0	False
620.22	0.0	2Suff w/o Lat.	22	620220	developmental	1.0	0.0	False
621.203	0.0	0Suff w/ Lat.	1	621203	extend	1.0	0.0	False
622.112	0.0	2Suff w/ Lat.	21	622112	conceptualize	1.0	1.0	True
623.012	0.0	0Suff w/o Lat.	2	623012	occasion	1.0	0.0	False
624.054	0.0	0Suff w/o Lat.	2	624054	mobile	1.0	0.0	False
624.963	0.0	2Suff Composite	23	624963	canonical	1.0	1.0	True
626.021	0.0	0Suff w/o Lat.	2	626021	origin	1.0	0.0	False
627.005	0.0	0Suff w/o Lat.	2	627005	compete	1.0	0.0	False
628.097	0.0	1Suff w/ Lat.	11	628097	affirmative	1.0	0.0	False
629.272	0.0	2Suff PseudoStemNW	24	629272	degorative	0.0	0.0	True
630.656	0.0	1Suff w/o Lat.	12	630656	triumphant	1.0	0.0	False
631.931	0.0	1Suff w/o Lat.	12	631931	rhythmic	1.0	0.0	False
633.04	0.0	2Suff PseudoStemNW	24	633040	tipeliness	0.0	1.0	False
634.024	0.0	1Suff w/o Lat.	12	634024	decisive	1.0	0.0	False
634.991	0.0	2Suff RealStemNW	25	634991	decisfully	0.0	0.0	True
636.066	0.0	1Suff RealStemNW	15	636066	conceptuic	0.0	0.0	True
637.083	0.0	0Suff NW	4	637083	goult	0.0	1.0	False
638.008	0.0	2Suff w/o Lat.	22	638008	familiarize	1.0	1.0	True
638.842	0.0	2Suff PseudoStemNW	24	638842	pasnetically	0.0	1.0	False
639.767	0.0	2Suff RealStemNW	25	639767	orderionist	0.0	1.0	False
640.676	0.0	2Suff w/o Lat.	22	640676	fatalist	1.0	1.0	True
642.001	0.0	2Suff w/o Lat.	22	642001	deadliness	1.0	0.0	False
643.268	0.0	1Suff RealStemNW	15	643268	educatate	0.0	1.0	False
644.51	0.0	1Suff w/o Lat.	12	644510	functional	1.0	0.0	False
645.594	0.0	1Suff w/o Lat.	12	645594	direction	1.0	0.0	False
647.178	0.0	0Suff w/o Lat.	2	647178	distinct	1.0	0.0	False
648.537	0.0	0Suff w/o Lat.	2	648537	stealth	1.0	0.0	False
649.845	0.0	2Suff w/o Lat.	22	649845	successfully	1.0	0.0	False
651.154	0.0	1Suff w/ Lat.	11	651154	persistent	1.0	0.0	False
652.63	0.0	0Suff w/ Lat.	1	652630	affirm	1.0	0.0	False
653.813	0.0	1Suff PseudoStemNW	14	653813	reration	0.0	1.0	False
654.922	0.0	0Suff NW	4	654922	helily	0.0	1.0	False
655.73	0.0	1Suff w/o Lat.	12	655730	immunize	1.0	0.0	False
656.822	0.0	2Suff PseudoStemNW	24	656822	hythically	0.0	1.0	False
658.415	0.0	0Suff NW	4	658415	degor	0.0	1.0	False
659.34	0.0	2Suff RealStemNW	25	659340	glorliness	0.0	1.0	False
660.282	0.0	1Suff PseudoStemNW	14	660282	thacken	0.0	1.0	False
661.199	0.0	1Suff w/o Lat.	12	661199	decorate	1.0	0.0	False
662.149	0.0	2Suff RealStemNW	25	662149	guiltioner	0.0	1.0	False
663.341	0.0	2Suff w/o Lat.	22	663341	guardianship	1.0	0.0	False
664.808	0.0	2Suff Composite	23	664808	vexation	1.0	1.0	True
665.759	0.0	1Suff w/ Lat.	11	665759	extensive	1.0	0.0	False
666.834	0.0	2Suff Composite	23	666834	characteristic	1.0	0.0	False
668.068	0.0	0Suff w/o Lat.	2	668068	add	1.0	0.0	False
669.418	0.0	2Suff w/o Lat.	22	669418	notification	1.0	0.0	False
670.418	0.0	2Suff RealStemNW	25	670418	immunability	0.0	0.0	True
671.81	0.0	1Suff PseudoStemNW	14	671810	uspasional	0.0	1.0	False
672.944	0.0	2Suff w/o Lat.	22	672944	moisturize	1.0	0.0	False
673.903	0.0	2Suff Composite	23	673903	futuristic	1.0	0.0	False
677.154	0.0	0Suff NW	4	677154	restit	0.0	1.0	False
678.312	0.0	2Suff RealStemNW	25	678312	decorural	0.0	1.0	False
679.346	0.0	2Suff w/o Lat.	22	679346	fatality	1.0	0.0	False
680.521	0.0	2Suff w/o Lat.	22	680521	wakefulness	1.0	0.0	False
681.597	0.0	1Suff w/o Lat.	12	681597	cheerful	1.0	0.0	False
682.68	0.0	1Suff PseudoStemNW	14	682680	thiendly	0.0	1.0	False
683.647	0.0	2Suff RealStemNW	25	683647	familierage	0.0	1.0	False
684.623	0.0	1Suff PseudoStemNW	14	684623	stumial	0.0	1.0	False
685.531	0.0	1Suff RealStemNW	15	685531	peaceive	0.0	1.0	False
686.548	0.0	2Suff w/ Lat.	21	686548	subjectively	1.0	0.0	False
687.507	0.0	0Suff w/o Lat.	2	687507	fast	1.0	0.0	False
688.424	0.0	2Suff w/o Lat.	22	688424	faithfully	1.0	0.0	False
689.499	0.0	2Suff RealStemNW	25	689499	guardifiance	0.0	1.0	False
691.1	0.0	2Suff w/o Lat.	22	691100	essentially	1.0	0.0	False
692.242	0.0	2Suff w/o Lat.	22	692242	decorative	1.0	0.0	False
693.267	0.0	2Suff RealStemNW	25	693267	differalism	0.0	1.0	False
694.226	0.0	0Suff NW	4	694226	betiece	0.0	1.0	False
695.176	0.0	1Suff w/o Lat.	12	695176	fasten	1.0	0.0	False
696.46	0.0	2Suff w/o Lat.	22	696460	designation	1.0	0.0	False
697.452	0.0	2Suff PseudoStemNW	24	697452	prodfessively	0.0	1.0	False
698.385	0.0	2Suff PseudoStemNW	24	698385	chierfully	0.0	1.0	False
699.261	0.0	1Suff w/o Lat.	12	699261	occasional	1.0	0.0	False
700.103	0.0	2Suff w/o Lat.	22	700103	hopefully	1.0	0.0	False
700.978	0.0	2Suff Composite	23	700978	inflammation	1.0	1.0	True
701.861	0.0	0Suff w/ Lat.	1	701861	persist	1.0	0.0	False
702.903	0.0	1Suff RealStemNW	15	702903	realify	0.0	0.0	True
703.937	0.0	1Suff w/ Lat.	11	703937	conceptual	1.0	0.0	False
704.946	0.0	2Suff PseudoStemNW	24	704946	detismsfully	0.0	1.0	False
705.996	0.0	2Suff w/o Lat.	22	705996	believably	1.0	0.0	False
706.938	0.0	2Suff PseudoStemNW	24	706938	tutiously	0.0	1.0	False
707.997	0.0	1Suff RealStemNW	15	707997	leador	0.0	0.0	True
708.864	0.0	2Suff w/o Lat.	22	708864	relationship	1.0	0.0	False
709.906	0.0	1Suff w/ Lat.	11	709906	mistaken	1.0	0.0	False
710.931	0.0	2Suff PseudoStemNW	24	710931	pipplification	0.0	1.0	False
711.864	0.0	0Suff w/ Lat.	1	711864	project	1.0	0.0	False
712.781	0.0	1Suff RealStemNW	15	712781	hopeable	0.0	1.0	False
713.723	0.0	2Suff w/o Lat.	22	713723	differently	1.0	0.0	False
714.674	0.0	2Suff RealStemNW	25	714674	forgetiveness	0.0	1.0	False
715.741	0.0	1Suff PseudoStemNW	14	715741	girernment	0.0	1.0	False
716.666	0.0	0Suff w/o Lat.	2	716666	faith	1.0	0.0	False
717.591	0.0	0Suff NW	4	717591	affall	0.0	1.0	False
718.558	0.0	2Suff w/o Lat.	22	718558	polarize	1.0	0.0	False
719.642	0.0	2Suff PseudoStemNW	24	719642	snoughtlessly	0.0	1.0	False
720.559	0.0	2Suff PseudoStemNW	24	720559	distawksively	0.0	1.0	False
721.417	0.0	0Suff NW	4	721417	distawks	0.0	1.0	False
722.334	0.0	2Suff w/o Lat.	22	722334	originator	1.0	1.0	True
723.168	0.0	1Suff w/o Lat.	12	723168	global	1.0	0.0	False
724.093	0.0	2Suff RealStemNW	25	724093	idealional	0.0	1.0	False
725.052	0.0	0Suff w/o Lat.	2	725052	dead	1.0	0.0	False
725.902	0.0	1Suff PseudoStemNW	14	725902	chotintical	0.0	1.0	False
726.869	0.0	0Suff NW	4	726869	sest	0.0	0.0	True
727.769	0.0	1Suff RealStemNW	15	727769	restable	0.0	0.0	True
728.653	0.0	1Suff RealStemNW	15	728653	soulive	0.0	1.0	False
729.77	0.0	0Suff w/o Lat.	2	729770	thought	1.0	0.0	False
730.679	0.0	2Suff w/o Lat.	22	730679	glorification	1.0	0.0	False
731.796	0.0	2Suff w/o Lat.	22	731796	periodical	1.0	0.0	False
733.063	0.0	0Suff NW	4	733063	mowth	0.0	1.0	False
734.346	0.0	2Suff PseudoStemNW	24	734346	stitilization	0.0	1.0	False
735.43	0.0	1Suff w/o Lat.	12	735430	racial	1.0	0.0	False
736.322	0.0	2Suff w/o Lat.	22	736322	materialistic	1.0	0.0	False
737.464	0.0	1Suff PseudoStemNW	14	737464	rumical	0.0	1.0	False
738.614	0.0	2Suff RealStemNW	25	738614	directality	0.0	1.0	False
740.182	0.0	1Suff w/ Lat.	11	740182	subjective	1.0	0.0	False
741.149	0.0	2Suff Composite	23	741149	organization	1.0	0.0	False
742.241	0.0	2Suff RealStemNW	25	742241	definerize	0.0	1.0	False
743.558	0.0	1Suff PseudoStemNW	14	743558	gulbsian	0.0	1.0	False
744.45	0.0	1Suff w/o Lat.	12	744450	polar	1.0	0.0	False
745.458	0.0	0Suff NW	4	745458	attossin	0.0	1.0	False
746.408	0.0	1Suff RealStemNW	15	746408	magnetal	0.0	1.0	False
747.484	0.0	2Suff w/o Lat.	22	747484	adaptability	1.0	1.0	True
748.409	0.0	2Suff PseudoStemNW	24	748409	figically	0.0	1.0	False
749.334	0.0	0Suff NW	4	749334	essoils	0.0	1.0	False
750.143	0.0	2Suff w/o Lat.	22	750143	protectionist	1.0	1.0	True
751.243	0.0	1Suff w/o Lat.	12	751243	originate	1.0	0.0	False
752.252	0.0	0Suff w/o Lat.	2	752252	rhythm	1.0	0.0	False
753.861	0.0	2Suff w/o Lat.	22	753861	reasonably	1.0	0.0	False
754.894	0.0	1Suff w/o Lat.	12	754894	deadly	1.0	0.0	False
755.82	0.0	2Suff PseudoStemNW	24	755820	segnonistic	0.0	1.0	False
756.92	0.0	1Suff w/o Lat.	12	756920	thoughtful	1.0	0.0	False
757.845	0.0	0Suff w/o Lat.	2	757845	accident	1.0	0.0	False
758.787	0.0	2Suff w/o Lat.	22	758787	hopelessness	1.0	0.0	False
760.063	0.0	0Suff w/o Lat.	2	760063	drama	1.0	0.0	False
761.288	0.0	2Suff w/o Lat.	22	761288	idealization	1.0	0.0	False
762.33	0.0	2Suff PseudoStemNW	24	762330	analkability	0.0	1.0	False
763.43	0.0	2Suff RealStemNW	25	763430	editionate	0.0	1.0	False
764.497	0.0	0Suff w/o Lat.	2	764497	glory	1.0	0.0	False
765.581	0.0	2Suff RealStemNW	25	765581	poetally	0.0	1.0	False
766.565	0.0	1Suff PseudoStemNW	14	766565	eseretion	0.0	1.0	False
767.573	0.0	2Suff w/o Lat.	22	767573	partially	1.0	0.0	False
768.49	0.0	1Suff PseudoStemNW	14	768490	ramial	0.0	1.0	False
769.491	0.0	2Suff PseudoStemNW	24	769491	essoilially	0.0	1.0	False
770.416	0.0	0Suff w/ Lat.	1	770416	impress	1.0	0.0	False
771.341	0.0	2Suff PseudoStemNW	24	771341	hodelessly	0.0	1.0	False
772.316	0.0	0Suff NW	4	772316	paft	0.0	1.0	False
773.35	0.0	1Suff w/o Lat.	12	773350	childish	1.0	0.0	False
774.275	0.0	1Suff RealStemNW	15	774275	intensful	0.0	0.0	True
775.301	0.0	0Suff NW	4	775301	sushect	0.0	1.0	False
776.243	0.0	0Suff w/o Lat.	2	776243	soft	1.0	0.0	False
777.151	0.0	2Suff w/o Lat.	22	777151	regrettably	1.0	1.0	True
778.252	0.0	1Suff w/o Lat.	12	778252	guardian	1.0	0.0	False
779.235	0.0	1Suff RealStemNW	15	779235	familior	0.0	1.0	False
780.261	0.0	2Suff RealStemNW	25	780261	seasonical	0.0	1.0	False
781.569	0.0	0Suff NW	4	781569	grame	0.0	1.0	False
782.67	0.0	1Suff w/o Lat.	12	782670	delightful	1.0	0.0	False
783.72	0.0	1Suff w/o Lat.	12	783720	mythical	1.0	0.0	False
784.72	0.0	2Suff RealStemNW	25	784720	affectorship	0.0	1.0	False
785.887	0.0	2Suff Composite	23	785887	revitalization	1.0	1.0	True
786.896	0.0	1Suff PseudoStemNW	14	786896	steadthy	0.0	1.0	False
788.071	0.0	2Suff PseudoStemNW	24	788071	vimidation	0.0	1.0	False
788.988	0.0	2Suff w/o Lat.	22	788988	uselessness	1.0	0.0	False
790.147	0.0	2Suff PseudoStemNW	24	790147	artlitackural	0.0	1.0	False
791.139	0.0	2Suff RealStemNW	25	791139	fasticly	0.0	1.0	False
792.206	0.0	1Suff w/ Lat.	11	792206	affection	1.0	0.0	False
793.181	0.0	2Suff RealStemNW	25	793181	governancial	0.0	1.0	False
794.123	0.0	0Suff w/o Lat.	2	794123	pole	1.0	0.0	False
795.24	0.0	0Suff NW	4	795240	concoler	0.0	1.0	False
796.249	0.0	2Suff w/o Lat.	22	796249	friendliness	1.0	0.0	False
797.349	0.0	1Suff PseudoStemNW	14	797349	fralatize	0.0	1.0	False
798.283	0.0	2Suff w/o Lat.	22	798283	thankfulness	1.0	0.0	False
803.293	0.0	1Suff w/o Lat.	12	803293	regrettable	1.0	1.0	True
804.568	0.0	1Suff w/o Lat.	12	804568	education	1.0	0.0	False
805.502	0.0	0Suff w/o Lat.	2	805502	architect	1.0	0.0	False
806.494	0.0	2Suff RealStemNW	25	806494	projectliness	0.0	1.0	False
807.444	0.0	0Suff NW	4	807444	devesug	0.0	1.0	False
808.344	0.0	2Suff w/o Lat.	22	808344	exhaustively	1.0	1.0	True
809.203	0.0	1Suff w/o Lat.	12	809203	editor	1.0	0.0	False
810.261	0.0	0Suff NW	4	810261	coul	0.0	1.0	False
811.245	0.0	1Suff w/o Lat.	12	811245	dramatize	1.0	0.0	False
812.17	0.0	2Suff Composite	23	812170	deterministic	1.0	1.0	True
813.129	0.0	2Suff RealStemNW	25	813129	easery	0.0	1.0	False
814.029	0.0	1Suff PseudoStemNW	14	814029	worchless	0.0	1.0	False
814.946	0.0	2Suff PseudoStemNW	24	814946	squasification	0.0	1.0	False
815.98	0.0	0Suff NW	4	815980	prodfess	0.0	1.0	False
816.88	0.0	1Suff PseudoStemNW	14	816880	chierful	0.0	1.0	False
817.822	0.0	1Suff w/o Lat.	12	817822	peaceful	1.0	0.0	False
818.747	0.0	0Suff NW	4	818747	snought	0.0	1.0	False
819.698	0.0	1Suff PseudoStemNW	14	819698	diruction	0.0	1.0	False
820.698	0.0	2Suff RealStemNW	25	820698	quotfully	0.0	1.0	False
821.598	0.0	2Suff w/o Lat.	22	821598	ethically	1.0	0.0	False
822.582	0.0	1Suff PseudoStemNW	14	822582	prodfessive	0.0	1.0	False
823.591	0.0	2Suff w/o Lat.	22	823591	considerably	1.0	0.0	False
824.608	0.0	1Suff RealStemNW	15	824608	periodal	0.0	1.0	False
825.975	0.0	1Suff w/o Lat.	12	825975	director	1.0	0.0	False
826.975	0.0	2Suff w/o Lat.	22	826975	fastener	1.0	1.0	True
828.075	0.0	0Suff NW	4	828075	stitile	0.0	1.0	False
828.984	0.0	1Suff w/o Lat.	12	828984	execution	1.0	0.0	False
829.934	0.0	2Suff PseudoStemNW	24	829934	comlomation	0.0	1.0	False
830.993	0.0	0Suff w/o Lat.	2	830993	statistic	1.0	0.0	False
831.943	0.0	2Suff w/o Lat.	22	831943	isolationist	1.0	1.0	True
833.094	0.0	2Suff w/o Lat.	22	833094	mobilization	1.0	0.0	False
834.069	0.0	1Suff w/o Lat.	12	834069	idealist	1.0	0.0	False
835.261	0.0	1Suff w/o Lat.	12	835261	dramatic	1.0	0.0	False
836.228	0.0	1Suff w/o Lat.	12	836228	original	1.0	0.0	False
837.203	0.0	1Suff PseudoStemNW	14	837203	falal	0.0	1.0	False
838.27	0.0	2Suff w/o Lat.	22	838270	dramatically	1.0	0.0	False
839.871	0.0	0Suff w/o Lat.	2	839871	note	1.0	0.0	False
840.988	0.0	2Suff w/o Lat.	22	840988	validation	1.0	0.0	False
842.088	0.0	1Suff RealStemNW	15	842088	deadic	0.0	1.0	False
843.313	0.0	0Suff w/o Lat.	2	843313	finance	1.0	0.0	False
844.272	0.0	2Suff w/o Lat.	22	844272	gloriously	1.0	1.0	True
844.897	0.0	0Suff NW	4	844897	provame	0.0	0.0	True
846.423	0.0	0Suff NW	4	846423	thash	0.0	1.0	False
847.556	0.0	0Suff w/o Lat.	2	847556	provoke	1.0	1.0	True
848.49	0.0	2Suff PseudoStemNW	24	848490	restittably	0.0	1.0	False
849.59	0.0	2Suff w/o Lat.	22	849590	speedily	1.0	0.0	False
850.641	0.0	1Suff w/o Lat.	12	850641	profitable	1.0	0.0	False
851.749	0.0	0Suff NW	4	851749	stumia	0.0	1.0	False
852.858	0.0	2Suff RealStemNW	25	852858	persistalism	0.0	1.0	False
853.875	0.0	0Suff w/o Lat.	2	853875	magnet	1.0	0.0	False
854.717	0.0	2Suff w/o Lat.	22	854717	decisively	1.0	0.0	False
855.992	0.0	2Suff PseudoStemNW	24	855992	onnensively	0.0	1.0	False
856.934	0.0	2Suff RealStemNW	25	856934	satirally	0.0	1.0	False
857.901	0.0	2Suff PseudoStemNW	24	857901	pafferential	0.0	1.0	False
858.801	0.0	0Suff w/o Lat.	2	858801	agree	1.0	0.0	False
859.743	0.0	2Suff w/o Lat.	22	859743	delightfully	1.0	0.0	False
860.835	0.0	0Suff w/o Lat.	2	860835	edit	1.0	0.0	False
861.769	0.0	1Suff w/o Lat.	12	861769	speedy	1.0	0.0	False
862.711	0.0	2Suff w/o Lat.	22	862711	relativism	1.0	1.0	True
863.845	0.0	2Suff w/o Lat.	22	863845	musically	1.0	1.0	True
864.828	0.0	2Suff RealStemNW	25	864828	awively	0.0	1.0	False
865.745	0.0	2Suff w/o Lat.	22	865745	decorator	1.0	0.0	False
866.687	0.0	0Suff w/o Lat.	2	866687	persuade	1.0	1.0	True
867.629	0.0	2Suff w/ Lat.	21	867629	projectionist	1.0	1.0	True
869.121	0.0	1Suff RealStemNW	15	869121	ritualify	0.0	1.0	False
870.113	0.0	1Suff w/o Lat.	12	870113	hopeful	1.0	0.0	False
871.039	0.0	2Suff RealStemNW	25	871039	materialional	0.0	1.0	False
872.206	0.0	1Suff PseudoStemNW	14	872206	hythical	0.0	1.0	False
873.264	0.0	0Suff NW	4	873264	eshaums	0.0	1.0	False
874.215	0.0	2Suff w/o Lat.	22	874215	fatalism	1.0	0.0	False
876.332	0.0	2Suff PseudoStemNW	24	876332	watefulness	0.0	0.0	True
878.391	0.0	2Suff w/o Lat.	22	878391	nervousness	1.0	0.0	False
879.449	0.0	1Suff w/o Lat.	12	879449	considerate	1.0	0.0	False
880.425	0.0	2Suff PseudoStemNW	24	880425	fleedily	0.0	1.0	False
881.508	0.0	1Suff PseudoStemNW	14	881508	uteless	0.0	1.0	False
882.4	0.0	2Suff PseudoStemNW	24	882400	deterfuristic	0.0	1.0	False
883.292	0.0	0Suff w/o Lat.	2	883292	out	1.0	0.0	False
884.434	0.0	2Suff Composite	23	884434	categorical	1.0	0.0	False
885.535	0.0	2Suff RealStemNW	25	885535	painively	0.0	1.0	False
886.618	0.0	2Suff w/o Lat.	22	886618	relativity	1.0	0.0	False
888.277	0.0	1Suff w/ Lat.	11	888277	instruction	1.0	0.0	False
889.278	0.0	1Suff w/o Lat.	12	889278	useless	1.0	0.0	False
890.186	0.0	2Suff w/o Lat.	22	890186	triumphantly	1.0	1.0	True
891.061	0.0	2Suff w/o Lat.	22	891061	educational	1.0	0.0	False
892.612	0.0	0Suff w/o Lat.	2	892612	ethic	1.0	0.0	False
893.529	0.0	2Suff Composite	23	893529	confederation	1.0	1.0	True
894.579	0.0	1Suff PseudoStemNW	14	894579	affallion	0.0	1.0	False
895.73	0.0	0Suff NW	4	895730	awd	0.0	1.0	False
896.638	0.0	0Suff w/ Lat.	1	896638	mistake	1.0	0.0	False
897.563	0.0	0Suff w/o Lat.	2	897563	consider	1.0	0.0	False
898.614	0.0	1Suff w/o Lat.	12	898614	glorify	1.0	0.0	False
899.572	0.0	2Suff Composite	23	899572	utilization	1.0	0.0	False
900.498	0.0	1Suff w/o Lat.	12	900498	familiar	1.0	0.0	False
901.423	0.0	2Suff PseudoStemNW	24	901423	snoughtfully	0.0	1.0	False
902.398	0.0	1Suff w/o Lat.	12	902398	relation	1.0	0.0	False
903.407	0.0	2Suff PseudoStemNW	24	903407	orifadality	0.0	1.0	False
904.299	0.0	1Suff PseudoStemNW	14	904299	hodeful	0.0	1.0	False
905.224	0.0	0Suff w/o Lat.	2	905224	child	1.0	0.0	False
906.149	0.0	0Suff w/o Lat.	2	906149	forget	1.0	0.0	False
907.091	0.0	1Suff w/o Lat.	12	907091	thicken	1.0	1.0	True
908.25	0.0	0Suff NW	4	908250	thack	0.0	1.0	False
909.284	0.0	2Suff Composite	23	909284	sterilization	1.0	0.0	False
910.501	0.0	1Suff RealStemNW	15	910501	gracance	0.0	1.0	False
911.626	0.0	2Suff w/o Lat.	22	911626	stealthily	1.0	1.0	True
912.851	0.0	0Suff NW	4	912851	reut	0.0	1.0	False
913.735	0.0	2Suff RealStemNW	25	913735	exhaustfully	0.0	0.0	True
915.386	0.0	2Suff PseudoStemNW	24	915386	posicarization	0.0	1.0	False
916.294	0.0	1Suff PseudoStemNW	14	916294	orifadate	0.0	1.0	False
917.169	0.0	0Suff w/o Lat.	2	917169	period	1.0	0.0	False
918.053	0.0	1Suff RealStemNW	15	918053	persuasful	0.0	1.0	False
918.912	0.0	0Suff w/o Lat.	2	918912	peace	1.0	0.0	False
919.845	0.0	2Suff w/o Lat.	22	919845	logically	1.0	0.0	False
920.796	0.0	0Suff w/o Lat.	2	920796	grace	1.0	0.0	False
921.663	0.0	2Suff w/o Lat.	22	921663	childishness	1.0	1.0	True
922.513	0.0	2Suff w/o Lat.	22	922513	agreeably	1.0	0.0	False
923.405	0.0	1Suff w/o Lat.	12	923405	soften	1.0	0.0	False
924.347	0.0	2Suff RealStemNW	25	924347	executarity	0.0	1.0	False
925.405	0.0	0Suff NW	4	925405	manfin	0.0	1.0	False
926.239	0.0	0Suff w/o Lat.	2	926239	isolate	1.0	0.0	False
929.69	0.0	0Suff NW	4	929690	fale	0.0	1.0	False
930.832	0.0	2Suff Composite	23	930832	cannibalistic	1.0	1.0	True
931.749	0.0	1Suff w/o Lat.	12	931749	accidental	1.0	0.0	False
932.683	0.0	0Suff NW	4	932683	pavediad	0.0	1.0	False
933.916	0.0	2Suff w/o Lat.	22	933916	differential	1.0	0.0	False
934.975	0.0	2Suff w/o Lat.	22	934975	nervously	1.0	0.0	False
935.967	0.0	0Suff w/o Lat.	2	935967	friend	1.0	0.0	False
936.917	0.0	0Suff w/o Lat.	2	936917	protect	1.0	0.0	False
937.851	0.0	0Suff NW	4	937851	analk	0.0	1.0	False
938.909	0.0	0Suff w/o Lat.	2	938909	direct	1.0	0.0	False
939.86	0.0	1Suff PseudoStemNW	14	939860	dehonite	0.0	1.0	False
940.918	0.0	2Suff PseudoStemNW	24	940918	steadthily	0.0	1.0	False
941.919	0.0	1Suff RealStemNW	15	941919	differify	0.0	1.0	False
942.827	0.0	1Suff w/o Lat.	12	942827	confession	1.0	0.0	False
943.861	0.0	1Suff w/o Lat.	12	943861	successful	1.0	0.0	False
944.795	0.0	0Suff NW	4	944795	gulbs	0.0	1.0	False
945.762	0.0	2Suff RealStemNW	25	945762	realional	0.0	1.0	False
946.837	0.0	1Suff w/o Lat.	12	946837	nervous	1.0	0.0	False
947.762	0.0	2Suff RealStemNW	25	947762	marketfulness	0.0	1.0	False
948.854	0.0	0Suff w/o Lat.	2	948854	soul	1.0	0.0	False
949.779	0.0	0Suff NW	4	949779	urmer	0.0	1.0	False
950.771	0.0	0Suff w/o Lat.	2	950771	assassin	1.0	0.0	False
951.972	0.0	1Suff w/ Lat.	11	951972	exhibition	1.0	0.0	False
953.206	0.0	0Suff w/o Lat.	2	953206	success	1.0	0.0	False
954.131	0.0	1Suff RealStemNW	15	954131	differious	0.0	1.0	False
955.29	0.0	2Suff w/ Lat.	21	955290	affirmatively	1.0	0.0	False
956.573	0.0	1Suff PseudoStemNW	14	956573	concolerable	0.0	0.0	True
957.649	0.0	2Suff Composite	23	957649	perturbation	1.0	0.0	False
958.616	0.0	1Suff w/o Lat.	12	958616	orderly	1.0	0.0	False
959.658	0.0	1Suff RealStemNW	15	959658	exhaustful	0.0	0.0	True
960.783	0.0	2Suff w/o Lat.	22	960783	definitive	1.0	0.0	False
961.75	0.0	0Suff w/o Lat.	2	961750	ideal	1.0	0.0	False
962.658	0.0	2Suff w/o Lat.	22	962658	gleefully	1.0	1.0	True
963.6	0.0	2Suff PseudoStemNW	24	963600	rerational	0.0	1.0	False
964.642	0.0	2Suff w/o Lat.	22	964642	marketability	1.0	1.0	True
965.718	0.0	0Suff w/o Lat.	2	965718	sleep	1.0	0.0	False
966.635	0.0	1Suff PseudoStemNW	14	966635	aisless	0.0	1.0	False
967.56	0.0	2Suff RealStemNW	25	967560	graceively	0.0	1.0	False
968.885	0.0	2Suff w/o Lat.	22	968885	distinctively	1.0	0.0	False
969.961	0.0	1Suff PseudoStemNW	14	969961	meabonal	0.0	1.0	False
970.936	0.0	0Suff NW	4	970936	exufant	0.0	1.0	False
971.845	0.0	1Suff RealStemNW	15	971845	thoughtive	0.0	0.0	True
972.92	0.0	0Suff NW	4	972920	prebit	0.0	1.0	False
973.837	0.0	2Suff w/o Lat.	22	973837	idealistic	1.0	0.0	False
974.937	0.0	2Suff w/o Lat.	22	974937	hopelessly	1.0	1.0	True
976.304	0.0	0Suff w/o Lat.	2	976304	trivia	1.0	0.0	False
977.338	0.0	0Suff w/o Lat.	2	977338	regret	1.0	0.0	False
978.297	0.0	0Suff NW	4	978297	finiles	0.0	1.0	False
979.397	0.0	2Suff Composite	23	979397	stratification	1.0	0.0	False
980.381	0.0	1Suff w/o Lat.	12	980381	competitive	1.0	0.0	False
981.306	0.0	2Suff PseudoStemNW	24	981306	chotintically	0.0	1.0	False
982.323	0.0	2Suff PseudoStemNW	24	982323	reratively	0.0	1.0	False
983.373	0.0	2Suff w/o Lat.	22	983373	intensively	1.0	0.0	False
984.399	0.0	2Suff PseudoStemNW	24	984399	pinonical	0.0	1.0	False
985.474	0.0	2Suff PseudoStemNW	24	985474	devesugmental	0.0	1.0	False
986.499	0.0	2Suff w/o Lat.	22	986499	additional	1.0	0.0	False
987.483	0.0	2Suff w/o Lat.	22	987483	healthily	1.0	1.0	True
988.55	0.0	0Suff NW	4	988550	cossete	0.0	1.0	False
989.625	0.0	2Suff RealStemNW	25	989625	restiousness	0.0	1.0	False
990.584	0.0	2Suff w/o Lat.	22	990584	statistically	1.0	0.0	False
991.559	0.0	0Suff w/o Lat.	2	991559	wake	1.0	0.0	False
992.559	0.0	0Suff NW	4	992559	isotent	0.0	1.0	False
993.535	0.0	1Suff PseudoStemNW	14	993535	prebitable	0.0	1.0	False
994.585	0.0	2Suff PseudoStemNW	24	994585	miccessfully	0.0	1.0	False
995.552	0.0	2Suff RealStemNW	25	995552	vitalilessly	0.0	1.0	False
996.436	0.0	1Suff w/o Lat.	12	996436	timely	1.0	0.0	False
997.428	0.0	1Suff RealStemNW	15	997428	idealate	0.0	1.0	False
998.486	0.0	0Suff w/o Lat.	2	998486	harm	1.0	0.0	False
999.562	0.0	0Suff w/o Lat.	2	999562	immune	1.0	0.0	False
1000.587	0.0	1Suff w/o Lat.	12	1000587	stealthy	1.0	0.0	False
1001.671	0.0	2Suff RealStemNW	25	1001671	subjectfully	0.0	0.0	True
1003.096	0.0	1Suff w/o Lat.	12	1003096	development	1.0	0.0	False
1004.121	0.0	0Suff w/o Lat.	2	1004121	aim	1.0	0.0	False
1004.955	0.0	1Suff RealStemNW	15	1004955	directar	0.0	1.0	False
1005.88	0.0	2Suff RealStemNW	25	1005880	financeical	0.0	1.0	False
1006.847	0.0	1Suff PseudoStemNW	14	1006847	paftial	0.0	1.0	False
1007.806	0.0	1Suff RealStemNW	15	1007806	considerion	0.0	1.0	False
1009.214	0.0	2Suff PseudoStemNW	24	1009214	priueurantly	0.0	1.0	False
1010.106	0.0	2Suff w/o Lat.	22	1010106	ceremonially	1.0	1.0	True
1011.207	0.0	1Suff w/o Lat.	12	1011207	believable	1.0	0.0	False
1012.165	0.0	1Suff RealStemNW	15	1012165	agreeless	0.0	1.0	False
1013.558	0.0	1Suff PseudoStemNW	14	1013558	cunerogial	0.0	1.0	False
1014.549	0.0	0Suff w/o Lat.	2	1014549	design	1.0	0.0	False
1015.591	0.0	0Suff NW	4	1015591	onnense	0.0	1.0	False
1016.508	0.0	2Suff RealStemNW	25	1016508	affirmatfully	0.0	0.0	True
1017.717	0.0	0Suff NW	4	1017717	bant	0.0	1.0	False
1018.842	0.0	2Suff w/o Lat.	22	1018842	thoughtfully	1.0	0.0	False
1020.093	0.0	1Suff w/o Lat.	12	1020093	painful	1.0	0.0	False
1021.135	0.0	0Suff NW	4	1021135	chird	0.0	1.0	False
1022.168	0.0	2Suff w/o Lat.	22	1022168	harmlessly	1.0	1.0	True
1023.569	0.0	1Suff PseudoStemNW	14	1023569	sushective	0.0	1.0	False
1024.961	0.0	0Suff w/o Lat.	2	1024961	exhaust	1.0	0.0	False
1026.411	0.0	0Suff w/o Lat.	2	1026411	worth	1.0	0.0	False
1027.395	0.0	2Suff w/ Lat.	21	1027395	subjectivity	1.0	0.0	False
1028.562	0.0	2Suff RealStemNW	25	1028562	notifilessly	0.0	1.0	False
1029.454	0.0	1Suff RealStemNW	15	1029454	furance	0.0	1.0	False
1030.571	0.0	1Suff PseudoStemNW	14	1030571	wrotious	0.0	1.0	False
1031.563	0.0	0Suff NW	4	1031563	desalk	0.0	1.0	False
1032.455	0.0	2Suff PseudoStemNW	24	1032455	ewsibally	0.0	1.0	False
1033.397	0.0	1Suff PseudoStemNW	14	1033397	nolable	0.0	1.0	False
1034.489	0.0	1Suff w/o Lat.	12	1034489	useful	1.0	0.0	False
1035.464	0.0	2Suff w/o Lat.	22	1035464	assassination	1.0	0.0	False
1036.49	0.0	2Suff RealStemNW	25	1036490	assassinfully	0.0	1.0	False
1037.898	0.0	1Suff RealStemNW	15	1037898	wakeive	0.0	1.0	False
1039.057	0.0	0Suff w/o Lat.	2	1039057	base	1.0	0.0	False
1039.982	0.0	0Suff NW	4	1039982	wead	0.0	1.0	False
1041.041	0.0	0Suff NW	4	1041041	han	0.0	1.0	False
1041.925	0.0	0Suff w/o Lat.	2	1041925	confess	1.0	0.0	False
1042.95	0.0	2Suff w/o Lat.	22	1042950	gracefully	1.0	0.0	False
