onset	duration	trial_type	value	sample	stimulus	is_word	response	correct
51.996	0.0	2Suff PseudoStemNW	24	51996	stoteldionist	0	1.0	False
52.988	0.0	2Suff w/o Lat.	22	52988	wakefulness	1	0.0	False
53.98	0.0	2Suff w/o Lat.	22	53980	substantially	1	0.0	False
55.239	0.0	1Suff w/o Lat.	12	55239	profitable	1	0.0	False
56.164	0.0	0Suff NW	4	56164	eserete	0	1.0	False
57.723	0.0	0Suff w/o Lat.	2	57723	function	1	0.0	False
58.673	0.0	0Suff NW	4	58673	lenction	0	1.0	False
59.715	0.0	2Suff w/o Lat.	22	59715	fastener	1	0.0	False
60.974	0.0	1Suff w/o Lat.	12	60974	development	1	0.0	False
62.75	0.0	1Suff w/o Lat.	12	62750	delightful	1	0.0	False
63.767	0.0	1Suff PseudoStemNW	14	63767	thacken	0	1.0	False
65.009	0.0	0Suff w/ Lat.	1	65009	affirm	1	0.0	False
65.992	0.0	1Suff w/o Lat.	12	65992	soften	1	0.0	False
66.959	0.0	1Suff PseudoStemNW	14	66959	vimidate	0	1.0	False
68.093	0.0	2Suff Composite	23	68093	perturbation	1	0.0	False
69.368	0.0	2Suff PseudoStemNW	24	69368	falumfilly	0	1.0	False
70.719	0.0	1Suff PseudoStemNW	14	70719	dehonite	0	1.0	False
71.627	0.0	2Suff PseudoStemNW	24	71627	miccessfully	0	1.0	False
72.619	0.0	0Suff w/o Lat.	2	72619	believe	1	1.0	True
74.92	0.0	0Suff NW	4	74920	frala	0	1.0	False
76.004	0.0	0Suff NW	4	76004	glibe	0	1.0	False
77.579	0.0	2Suff Composite	23	77579	biblical	1	0.0	False
78.863	0.0	2Suff w/o Lat.	22	78863	periodical	1	0.0	False
80.03	0.0	2Suff RealStemNW	25	80030	definerize	0	1.0	False
81.872	0.0	1Suff RealStemNW	15	81872	architectian	0	1.0	False
84.24	0.0	2Suff RealStemNW	25	84240	directality	0	0.0	True
85.457	0.0	2Suff RealStemNW	25	85457	futurional	0	1.0	False
87.507	0.0	1Suff PseudoStemNW	14	87507	preguctable	0	1.0	False
89.124	0.0	0Suff NW	4	89124	imoat	0	1.0	False
90.091	0.0	1Suff w/o Lat.	12	90091	periodic	1	0.0	False
91.55	0.0	0Suff NW	4	91550	arx	0	1.0	False
92.642	0.0	2Suff w/o Lat.	22	92642	relatively	1	0.0	False
94.251	0.0	2Suff RealStemNW	25	94251	subjectfully	0	0.0	True
95.476	0.0	0Suff w/o Lat.	2	95476	real	1	0.0	False
96.51	0.0	0Suff w/o Lat.	2	96510	develop	1	0.0	False
97.46	0.0	2Suff w/o Lat.	22	97460	additional	1	0.0	False
98.411	0.0	2Suff PseudoStemNW	24	98411	pipplification	0	1.0	False
99.536	0.0	1Suff w/ Lat.	11	99536	instruction	1	0.0	False
100.611	0.0	0Suff NW	4	100611	tuty	0	1.0	False
101.895	0.0	2Suff RealStemNW	25	101895	glorliness	0	1.0	False
102.945	0.0	2Suff PseudoStemNW	24	102945	figically	0	1.0	False
104.187	0.0	0Suff NW	4	104187	preguct	0	1.0	False
105.329	0.0	0Suff w/o Lat.	2	105329	govern	1	1.0	True
106.221	0.0	0Suff w/ Lat.	1	106221	concept	1	0.0	False
107.155	0.0	1Suff RealStemNW	15	107155	conceptuic	0	0.0	True
108.33	0.0	0Suff w/ Lat.	1	108330	project	1	0.0	False
109.314	0.0	2Suff Composite	23	109314	allegation	1	0.0	False
110.739	0.0	0Suff w/o Lat.	2	110739	season	1	0.0	False
111.615	0.0	2Suff RealStemNW	25	111615	accidentical	0	0.0	True
112.648	0.0	2Suff RealStemNW	25	112648	marketfulness	0	1.0	False
114.457	0.0	1Suff RealStemNW	15	114457	painable	0	0.0	True
115.558	0.0	1Suff w/o Lat.	12	115558	definite	1	0.0	False
116.641	0.0	1Suff w/o Lat.	12	116641	marketable	1	0.0	False
118.692	0.0	2Suff w/o Lat.	22	118692	intensively	1	0.0	False
120.109	0.0	0Suff w/o Lat.	2	120109	ritual	1	0.0	False
121.309	0.0	1Suff w/o Lat.	12	121309	adaptable	1	0.0	False
122.385	0.0	1Suff w/o Lat.	12	122385	faithful	1	0.0	False
123.985	0.0	2Suff Composite	23	123985	vitalization	1	0.0	False
126.044	0.0	0Suff w/o Lat.	2	126044	market	1	0.0	False
126.936	0.0	2Suff PseudoStemNW	24	126936	tutiously	0		False
129.337	0.0	0Suff w/o Lat.	2	129337	sleep	1	0.0	False
130.354	0.0	2Suff w/o Lat.	22	130354	agreeably	1	0.0	False
131.429	0.0	1Suff PseudoStemNW	14	131429	eseretion	0	1.0	False
132.488	0.0	2Suff RealStemNW	25	132488	restiousness	0	1.0	False
134.063	0.0	2Suff w/o Lat.	22	134063	fatally	1	0.0	False
135.072	0.0	2Suff RealStemNW	25	135072	dramatilessly	0	1.0	False
136.547	0.0	0Suff NW	4	136547	fleed	0	1.0	False
137.756	0.0	1Suff w/o Lat.	12	137756	immunize	1	0.0	False
138.948	0.0	2Suff Composite	23	138948	characteristic	1	0.0	False
140.307	0.0	2Suff w/ Lat.	21	140307	affirmatively	1	0.0	False
141.782	0.0	2Suff w/ Lat.	21	141782	conceptualize	1	0.0	False
143.716	0.0	1Suff w/o Lat.	12	143716	believable	1	0.0	False
144.8	0.0	0Suff w/o Lat.	2	144800	part	1	0.0	False
145.767	0.0	1Suff w/o Lat.	12	145767	orderly	1	0.0	False
146.901	0.0	1Suff RealStemNW	15	146901	differious	0	1.0	False
148.184	0.0	1Suff w/o Lat.	12	148184	mythical	1	0.0	False
149.318	0.0	1Suff RealStemNW	15	149318	intensful	0	0.0	True
150.218	0.0	2Suff w/o Lat.	22	150218	childishly	1	0.0	False
151.352	0.0	1Suff w/o Lat.	12	151352	mobilize	1	0.0	False
152.469	0.0	2Suff RealStemNW	25	152469	marginical	0	1.0	False
153.519	0.0	0Suff NW	4	153519	ewsib	0	1.0	False
154.678	0.0	1Suff RealStemNW	15	154678	leador	0	1.0	False
156.153	0.0	1Suff PseudoStemNW	14	156153	paftial	0	1.0	False
157.154	0.0	1Suff w/ Lat.	11	157154	projection	1	0.0	False
158.254	0.0	2Suff PseudoStemNW	24	158254	lenctionally	0	1.0	False
159.396	0.0	1Suff w/o Lat.	12	159396	musical	1	0.0	False
160.363	0.0	2Suff w/o Lat.	22	160363	differently	1	0.0	False
162.514	0.0	2Suff w/o Lat.	22	162514	transitional	1	0.0	False
163.856	0.0	2Suff w/o Lat.	22	163856	basically	1	0.0	False
165.015	0.0	1Suff w/o Lat.	12	165015	outward	1	0.0	False
166.023	0.0	0Suff w/o Lat.	2	166023	pole	1	0.0	False
167.065	0.0	1Suff PseudoStemNW	14	167065	fralatize	0	1.0	False
168.115	0.0	1Suff PseudoStemNW	14	168115	thashful	0	1.0	False
169.141	0.0	1Suff w/o Lat.	12	169141	deadly	1	0.0	False
170.083	0.0	2Suff w/o Lat.	22	170083	validation	1	0.0	False
171.183	0.0	0Suff w/o Lat.	2	171183	lead	1	0.0	False
172.125	0.0	2Suff w/o Lat.	22	172125	reasonably	1	0.0	False
173.117	0.0	1Suff RealStemNW	15	173117	marketless	0	0.0	True
174.309	0.0	2Suff w/o Lat.	22	174309	isolationist	1	0.0	False
175.91	0.0	0Suff NW	4	175910	fleep	0	1.0	False
177.085	0.0	2Suff w/o Lat.	22	177085	fatality	1	0.0	False
178.094	0.0	2Suff RealStemNW	25	178094	guardifiance	0	1.0	False
179.119	0.0	2Suff PseudoStemNW	24	179119	eetwardly	0	1.0	False
180.311	0.0	2Suff PseudoStemNW	24	180311	uspasionally	0	1.0	False
181.386	0.0	1Suff RealStemNW	15	181386	considerion	0	0.0	True
182.603	0.0	0Suff w/o Lat.	2	182603	grace	1	0.0	False
183.612	0.0	0Suff w/o Lat.	2	183612	awe	1	0.0	False
184.796	0.0	1Suff w/ Lat.	11	184796	subjective	1	0.0	False
185.929	0.0	0Suff w/o Lat.	2	185929	trivia	1	0.0	False
187.113	0.0	2Suff w/ Lat.	21	187113	affectionate	1	0.0	False
188.463	0.0	2Suff PseudoStemNW	24	188463	snoughtfully	0	1.0	False
189.655	0.0	2Suff w/o Lat.	22	189655	softener	1	0.0	False
190.973	0.0	2Suff w/o Lat.	22	190973	differentiate	1	0.0	False
192.573	0.0	0Suff NW	4	192573	diruce	0	1.0	False
193.832	0.0	0Suff NW	4	193832	pote	0	1.0	False
195.157	0.0	1Suff PseudoStemNW	14	195157	wrotify	0	1.0	False
196.299	0.0	2Suff RealStemNW	25	196299	editerize	0	1.0	False
197.866	0.0	1Suff RealStemNW	15	197866	logicic	0	1.0	False
199.075	0.0	0Suff w/o Lat.	2	199075	soul	1	0.0	False
250.816	0.0	1Suff w/o Lat.	12	250816	thoughtless	1	0.0	False
252.45	0.0	1Suff RealStemNW	15	252450	educatate	0	1.0	False
254.209	0.0	0Suff NW	4	254209	moel	0	1.0	False
255.192	0.0	2Suff w/o Lat.	22	255192	triviality	1	1.0	True
257.426	0.0	2Suff w/o Lat.	22	257426	soulfully	1	0.0	False
258.643	0.0	2Suff RealStemNW	25	258643	awively	0	1.0	False
259.635	0.0	2Suff w/o Lat.	22	259635	successfully	1	0.0	False
260.719	0.0	1Suff PseudoStemNW	14	260719	girernment	0	1.0	False
261.753	0.0	1Suff w/o Lat.	12	261753	poetic	1	0.0	False
262.87	0.0	2Suff Composite	23	262870	simplification	1	0.0	False
264.095	0.0	2Suff RealStemNW	25	264095	vitalilessly	0	1.0	False
266.004	0.0	2Suff w/o Lat.	22	266004	originality	1	0.0	False
267.154	0.0	2Suff RealStemNW	25	267154	categorally	0		False
269.563	0.0	0Suff NW	4	269563	sork	0	1.0	False
270.73	0.0	2Suff Composite	23	270730	corporation	1	0.0	False
271.939	0.0	2Suff w/o Lat.	22	271939	frightfully	1	0.0	False
273.165	0.0	0Suff NW	4	273165	prodfess	0	1.0	False
274.24	0.0	0Suff w/o Lat.	2	274240	soft	1	0.0	False
275.123	0.0	0Suff NW	4	275123	stumia	0	1.0	False
276.307	0.0	0Suff NW	4	276307	subplence	0	1.0	False
277.341	0.0	0Suff w/ Lat.	1	277341	subject	1	0.0	False
278.299	0.0	0Suff w/o Lat.	2	278299	fate	1	0.0	False
279.483	0.0	0Suff NW	4	279483	helily	0	1.0	False
280.45	0.0	1Suff PseudoStemNW	14	280450	restittable	0	1.0	False
281.492	0.0	2Suff w/ Lat.	21	281492	projectionist	1	1.0	True
282.993	0.0	2Suff RealStemNW	25	282993	affectorship	0	1.0	False
284.193	0.0	0Suff w/o Lat.	2	284193	origin	1	0.0	False
285.235	0.0	0Suff NW	4	285235	degor	0	1.0	False
286.46	0.0	1Suff PseudoStemNW	14	286460	appigental	0	1.0	False
287.794	0.0	2Suff RealStemNW	25	287794	guiltioner	0	1.0	False
289.061	0.0	2Suff RealStemNW	25	289061	revitalilessly	0	1.0	False
290.803	0.0	2Suff w/o Lat.	22	290803	originally	1	0.0	False
291.837	0.0	0Suff w/o Lat.	2	291837	hope	1	0.0	False
292.704	0.0	1Suff w/o Lat.	12	292704	notify	1	0.0	False
293.771	0.0	1Suff w/o Lat.	12	293771	statistical	1	0.0	False
294.996	0.0	0Suff w/o Lat.	2	294996	distinct	1	0.0	False
295.905	0.0	1Suff w/ Lat.	11	295905	progressive	1	0.0	False
296.805	0.0	2Suff w/o Lat.	22	296805	profitably	1	0.0	False
297.689	0.0	1Suff w/o Lat.	12	297689	relative	1	0.0	False
298.756	0.0	1Suff w/o Lat.	12	298756	glorify	1	0.0	False
299.998	0.0	0Suff w/o Lat.	2	299998	forget	1	0.0	False
300.973	0.0	0Suff NW	4	300973	chansot	0	1.0	False
302.048	0.0	2Suff PseudoStemNW	24	302048	comlomation	0	1.0	False
303.199	0.0	0Suff w/o Lat.	2	303199	immune	1	0.0	False
304.332	0.0	1Suff w/o Lat.	12	304332	dramatic	1	0.0	False
305.274	0.0	2Suff w/o Lat.	22	305274	gloriously	1	0.0	False
307.008	0.0	1Suff PseudoStemNW	14	307008	rumical	0	0.0	True
308.292	0.0	2Suff PseudoStemNW	24	308292	priueurantly	0	1.0	False
309.459	0.0	2Suff w/o Lat.	22	309459	idealistic	1	0.0	False
310.659	0.0	2Suff Composite	23	310659	cannibalistic	1	0.0	False
312.302	0.0	1Suff RealStemNW	15	312302	instructate	0	1.0	False
314.319	0.0	0Suff w/o Lat.	2	314319	adapt	1	0.0	False
315.494	0.0	2Suff Composite	23	315494	satirical	1	0.0	False
316.928	0.0	1Suff w/o Lat.	12	316928	painful	1	0.0	False
318.278	0.0	2Suff w/o Lat.	22	318278	differential	1	0.0	False
319.329	0.0	2Suff RealStemNW	25	319329	impressliness	0	1.0	False
321.213	0.0	2Suff w/ Lat.	21	321213	predictably	1	0.0	False
322.455	0.0	2Suff w/o Lat.	22	322455	orderliness	1	0.0	False
323.422	0.0	1Suff PseudoStemNW	14	323422	uspasional	0	1.0	False
324.547	0.0	2Suff RealStemNW	25	324547	agreeally	0	0.0	True
325.539	0.0	2Suff w/o Lat.	22	325539	racially	1	0.0	False
326.656	0.0	0Suff w/o Lat.	2	326656	guilt	1	0.0	False
327.681	0.0	0Suff NW	4	327681	ute	0	1.0	False
328.84	0.0	2Suff w/o Lat.	22	328840	gracefully	1	0.0	False
329.874	0.0	0Suff NW	4	329874	pavediad	0	1.0	False
331.049	0.0	2Suff RealStemNW	25	331049	poetally	0	1.0	False
332.199	0.0	1Suff PseudoStemNW	14	332199	sorken	0	1.0	False
333.241	0.0	0Suff w/o Lat.	2	333241	essence	1	0.0	False
334.375	0.0	2Suff PseudoStemNW	24	334375	urhanization	0	1.0	False
335.375	0.0	1Suff RealStemNW	15	335375	impressate	0	1.0	False
337.218	0.0	1Suff w/o Lat.	12	337218	basic	1	0.0	False
338.168	0.0	1Suff w/o Lat.	12	338168	commentate	1	0.0	False
339.227	0.0	2Suff PseudoStemNW	24	339227	utefully	0	1.0	False
340.327	0.0	2Suff RealStemNW	25	340327	raceical	0	1.0	False
341.411	0.0	2Suff PseudoStemNW	24	341411	pasklessly	0	1.0	False
342.386	0.0	2Suff RealStemNW	25	342386	conceptuical	0	0.0	True
343.553	0.0	0Suff NW	4	343553	worch	0	1.0	False
344.995	0.0	2Suff RealStemNW	25	344995	cheerability	0	1.0	False
346.337	0.0	2Suff PseudoStemNW	24	346337	detismsfully	0	1.0	False
347.271	0.0	2Suff w/o Lat.	22	347271	delightfully	1	1.0	True
348.371	0.0	1Suff w/o Lat.	12	348371	timely	1	0.0	False
349.288	0.0	0Suff NW	4	349288	itcress	0	1.0	False
350.255	0.0	2Suff w/o Lat.	22	350255	peacefully	1	0.0	False
351.189	0.0	2Suff w/o Lat.	22	351189	thoughtfully	1	0.0	False
352.231	0.0	0Suff NW	4	352231	analk	0	1.0	False
353.148	0.0	1Suff w/o Lat.	12	353148	rhythmic	1	0.0	False
354.64	0.0	1Suff w/ Lat.	11	354640	affection	1	0.0	False
355.632	0.0	2Suff PseudoStemNW	24	355632	hythically	0	1.0	False
357.065	0.0	2Suff w/o Lat.	22	357065	financially	1	0.0	False
358.091	0.0	2Suff w/o Lat.	22	358091	rhythmically	1	0.0	False
359.825	0.0	0Suff NW	4	359825	essoils	0	1.0	False
360.983	0.0	1Suff w/o Lat.	12	360983	essential	1	0.0	False
362.15	0.0	2Suff RealStemNW	25	362150	decorural	0	1.0	False
363.142	0.0	1Suff RealStemNW	15	363142	nervate	0	1.0	False
364.543	0.0	2Suff PseudoStemNW	24	364543	dehonitive	0	1.0	False
365.526	0.0	0Suff w/o Lat.	2	365526	dead	1	0.0	False
366.493	0.0	1Suff RealStemNW	15	366493	protectate	0	1.0	False
368.11	0.0	0Suff NW	4	368110	peece	0	1.0	False
369.119	0.0	0Suff w/o Lat.	2	369119	mobile	1	1.0	True
370.219	0.0	2Suff PseudoStemNW	24	370219	rhylphically	0	1.0	False
371.72	0.0	2Suff RealStemNW	25	371720	forgetiveness	0	1.0	False
373.787	0.0	1Suff RealStemNW	15	373787	thoughtive	0	1.0	False
375.263	0.0	0Suff w/o Lat.	2	375263	occasion	1	0.0	False
376.313	0.0	1Suff PseudoStemNW	14	376313	steadthy	0	1.0	False
377.455	0.0	1Suff w/o Lat.	12	377455	thankful	1	0.0	False
378.514	0.0	1Suff w/o Lat.	12	378514	heroic	1	0.0	False
379.489	0.0	0Suff w/o Lat.	2	379489	assassin	1	0.0	False
380.623	0.0	2Suff PseudoStemNW	24	380623	deterfuristic	0	1.0	False
381.848	0.0	2Suff w/ Lat.	21	381848	instructional	1	0.0	False
383.032	0.0	2Suff w/o Lat.	22	383032	mythically	1	0.0	False
384.174	0.0	1Suff RealStemNW	15	384174	mistaker	0	1.0	False
385.558	0.0	0Suff NW	4	385558	musual	0	1.0	False
386.675	0.0	0Suff NW	4	386675	restit	0	1.0	False
387.85	0.0	2Suff PseudoStemNW	24	387850	pafleurization	0	1.0	False
388.959	0.0	2Suff Composite	23	388959	categorical	1	0.0	False
390.259	0.0	0Suff w/o Lat.	2	390259	hero	1	0.0	False
391.159	0.0	0Suff NW	4	391159	headth	0	1.0	False
392.251	0.0	0Suff NW	4	392251	vimid	0	1.0	False
393.593	0.0	2Suff PseudoStemNW	24	393593	prodfessively	0	1.0	False
418.184	0.0	1Suff PseudoStemNW	14	418184	meabonal	0	1.0	False
419.268	0.0	1Suff RealStemNW	15	419268	ritualify	0	1.0	False
420.702	0.0	0Suff w/o Lat.	2	420702	valid	1	0.0	False
421.652	0.0	0Suff w/o Lat.	2	421652	isolate	1	0.0	False
422.577	0.0	1Suff PseudoStemNW	14	422577	imoatist	0	1.0	False
423.528	0.0	2Suff w/o Lat.	22	423528	nervously	1	0.0	False
424.836	0.0	2Suff PseudoStemNW	24	424836	steadthily	0	1.0	False
425.895	0.0	2Suff w/o Lat.	22	425895	originator	1	1.0	True
427.095	0.0	2Suff w/o Lat.	22	427095	relativity	1	0.0	False
428.079	0.0	0Suff w/o Lat.	2	428079	exhaust	1	0.0	False
429.488	0.0	0Suff NW	4	429488	avold	0	1.0	False
430.488	0.0	0Suff w/o Lat.	2	430488	consider	1	0.0	False
431.472	0.0	2Suff w/o Lat.	22	431472	worthlessness	1	0.0	False
433.005	0.0	0Suff w/o Lat.	2	433005	add	1	0.0	False
433.931	0.0	1Suff PseudoStemNW	14	433931	prowertion	0	1.0	False
434.898	0.0	0Suff w/o Lat.	2	434898	comment	1	0.0	False
435.956	0.0	2Suff PseudoStemNW	24	435956	otification	0	1.0	False
437.073	0.0	1Suff w/o Lat.	12	437073	thoughtful	1	0.0	False
438.09	0.0	1Suff PseudoStemNW	14	438090	awdition	0	1.0	False
439.057	0.0	1Suff RealStemNW	15	439057	developward	0	0.0	True
440.241	0.0	0Suff w/o Lat.	2	440241	use	1	0.0	False
441.258	0.0	0Suff w/o Lat.	2	441258	speed	1	0.0	False
442.358	0.0	1Suff RealStemNW	15	442358	heroal	0	1.0	False
443.475	0.0	2Suff w/o Lat.	22	443475	considerably	1	0.0	False
444.467	0.0	2Suff w/o Lat.	22	444467	regrettably	1	0.0	False
445.893	0.0	0Suff NW	4	445893	pask	0	1.0	False
446.926	0.0	1Suff PseudoStemNW	14	446926	snoughtless	0	1.0	False
448.344	0.0	2Suff RealStemNW	25	448344	affirmatfully	0	1.0	False
449.902	0.0	2Suff RealStemNW	25	449902	glorifilessly	0	1.0	False
451.328	0.0	2Suff w/o Lat.	22	451328	triumphantly	1	0.0	False
452.478	0.0	0Suff NW	4	452478	ais	0	1.0	False
453.378	0.0	0Suff w/o Lat.	2	453378	order	1	0.0	False
454.42	0.0	2Suff w/o Lat.	22	454420	familiarity	1	0.0	False
455.587	0.0	1Suff w/o Lat.	12	455587	assassinate	1	0.0	False
457.163	0.0	2Suff w/o Lat.	22	457163	trivialize	1	0.0	False
458.18	0.0	0Suff w/o Lat.	2	458180	architect	1	0.0	False
459.23	0.0	1Suff w/o Lat.	12	459230	director	1	0.0	False
460.239	0.0	1Suff w/o Lat.	12	460239	soulful	1	0.0	False
461.348	0.0	0Suff NW	4	461348	goult	0	1.0	False
462.465	0.0	1Suff w/o Lat.	12	462465	worthless	1	0.0	False
463.448	0.0	2Suff PseudoStemNW	24	463448	vimidation	0	1.0	False
465.591	0.0	1Suff PseudoStemNW	14	465591	etilor	0	1.0	False
466.858	0.0	2Suff PseudoStemNW	24	466858	potarity	0	1.0	False
468.55	0.0	0Suff w/o Lat.	2	468550	agree	1	0.0	False
469.492	0.0	1Suff PseudoStemNW	14	469492	stumial	0	1.0	False
470.5	0.0	2Suff w/o Lat.	22	470500	directorship	1	0.0	False
471.526	0.0	2Suff PseudoStemNW	24	471526	pafferential	0	1.0	False
472.551	0.0	2Suff RealStemNW	25	472551	relateness	0	1.0	False
474.535	0.0	0Suff NW	4	474535	pipsist	0	1.0	False
475.46	0.0	0Suff NW	4	475460	cossete	0	1.0	False
476.394	0.0	0Suff NW	4	476394	snight	0	1.0	False
477.327	0.0	2Suff RealStemNW	25	477327	dramationist	0	1.0	False
478.428	0.0	2Suff w/o Lat.	22	478428	decisively	1	1.0	True
479.445	0.0	0Suff w/o Lat.	2	479445	ideal	1	0.0	False
480.637	0.0	0Suff NW	4	480637	affaid	0	1.0	False
481.67	0.0	0Suff NW	4	481670	sest	0	1.0	False
482.746	0.0	2Suff RealStemNW	25	482746	fatical	0	1.0	False
484.855	0.0	0Suff NW	4	484855	eshaums	0	1.0	False
485.788	0.0	2Suff PseudoStemNW	24	485788	concuchualize	0	1.0	False
486.705	0.0	0Suff w/o Lat.	2	486705	family	1	0.0	False
487.664	0.0	2Suff PseudoStemNW	24	487664	headthily	0	1.0	False
488.731	0.0	1Suff PseudoStemNW	14	488731	hythical	0	1.0	False
490.156	0.0	0Suff w/o Lat.	2	490156	confess	1	0.0	False
491.307	0.0	2Suff w/o Lat.	22	491307	speedily	1	0.0	False
493.007	0.0	0Suff NW	4	493007	prebit	0	1.0	False
495.266	0.0	2Suff w/o Lat.	22	495266	hopefully	1	0.0	False
496.283	0.0	0Suff w/o Lat.	2	496283	persuade	1	0.0	False
497.317	0.0	1Suff w/o Lat.	12	497317	direction	1	0.0	False
498.192	0.0	1Suff w/o Lat.	12	498192	difference	1	0.0	False
499.226	0.0	2Suff PseudoStemNW	24	499226	fleedily	0	1.0	False
500.335	0.0	2Suff PseudoStemNW	24	500335	ictressionism	0	1.0	False
501.368	0.0	2Suff w/o Lat.	22	501368	childishness	1	0.0	False
503.369	0.0	1Suff w/o Lat.	12	503369	isolation	1	0.0	False
504.302	0.0	2Suff PseudoStemNW	24	504302	arfulness	0	1.0	False
505.386	0.0	0Suff w/o Lat.	2	505386	define	1	0.0	False
506.303	0.0	0Suff w/o Lat.	2	506303	finance	1	0.0	False
507.387	0.0	1Suff w/o Lat.	12	507387	seasonal	1	0.0	False
508.404	0.0	2Suff PseudoStemNW	24	508404	thashfulness	0		False
510.804	0.0	1Suff w/o Lat.	12	510804	manly	1	0.0	False
512.072	0.0	2Suff PseudoStemNW	24	512072	denboderation	0	1.0	False
513.055	0.0	2Suff w/o Lat.	22	513055	mobilization	1	0.0	False
514.322	0.0	1Suff PseudoStemNW	14	514322	falal	0	1.0	False
515.464	0.0	2Suff w/o Lat.	22	515464	commentator	1	0.0	False
516.623	0.0	2Suff PseudoStemNW	24	516623	carbisalistic	0	1.0	False
517.673	0.0	1Suff RealStemNW	15	517673	forgetive	0	0.0	True
518.932	0.0	2Suff w/o Lat.	22	518932	graciously	1	0.0	False
520.466	0.0	1Suff w/o Lat.	12	520466	exhaustive	1	0.0	False
522.591	0.0	2Suff w/o Lat.	22	522591	leaderless	1	0.0	False
524.042	0.0	1Suff w/o Lat.	12	524042	trivial	1	0.0	False
525.242	0.0	2Suff Composite	23	525242	quotation	1	0.0	False
526.251	0.0	1Suff w/o Lat.	12	526251	guardian	1	0.0	False
527.118	0.0	0Suff w/o Lat.	2	527118	reason	1	0.0	False
527.985	0.0	2Suff RealStemNW	25	527985	educatality	0	1.0	False
529.377	0.0	1Suff w/o Lat.	12	529377	successful	1	0.0	False
530.569	0.0	0Suff w/o Lat.	2	530569	ethic	1	0.0	False
531.686	0.0	0Suff NW	4	531686	mowth	0	1.0	False
532.786	0.0	1Suff w/o Lat.	12	532786	nervous	1	0.0	False
533.662	0.0	2Suff w/o Lat.	22	533662	ceremonially	1	0.0	False
535.579	0.0	1Suff w/o Lat.	12	535579	considerable	1	0.0	False
536.696	0.0	2Suff RealStemNW	25	536696	seasonical	0	0.0	True
538.246	0.0	1Suff w/o Lat.	12	538246	painless	1	0.0	False
539.288	0.0	0Suff w/ Lat.	1	539288	avail	1	1.0	True
540.572	0.0	1Suff w/o Lat.	12	540572	idealize	1	0.0	False
542.047	0.0	2Suff w/o Lat.	22	542047	guiltiness	1	0.0	False
543.214	0.0	1Suff PseudoStemNW	14	543214	pavediadist	0	1.0	False
544.39	0.0	2Suff PseudoStemNW	24	544390	onnensively	0	1.0	False
545.373	0.0	2Suff RealStemNW	25	545373	satirally	0	1.0	False
546.54	0.0	0Suff w/o Lat.	2	546540	differ	1	1.0	True
547.574	0.0	2Suff w/o Lat.	22	547574	notably	1		False
549.975	0.0	2Suff PseudoStemNW	24	549975	awditional	0	1.0	False
551.05	0.0	2Suff w/o Lat.	22	551050	faithfully	1	0.0	False
552.009	0.0	0Suff w/o Lat.	2	552009	out	1	0.0	False
552.959	0.0	2Suff RealStemNW	25	552959	musicical	0	0.0	True
553.834	0.0	2Suff w/o Lat.	22	553834	editorial	1	0.0	False
555.268	0.0	1Suff w/o Lat.	12	555268	moisture	1	0.0	False
556.293	0.0	2Suff Composite	23	556293	militarization	1	0.0	False
558.019	0.0	2Suff RealStemNW	25	558019	considerishly	0	1.0	False
559.394	0.0	1Suff w/o Lat.	12	559394	marginal	1	0.0	False
560.436	0.0	2Suff PseudoStemNW	24	560436	rerational	0	1.0	False
600.49	0.0	1Suff RealStemNW	15	600490	designion	0	1.0	False
601.657	0.0	0Suff w/o Lat.	2	601657	man	1	0.0	False
602.558	0.0	2Suff w/o Lat.	22	602558	ritualistic	1	0.0	False
603.65	0.0	0Suff w/o Lat.	2	603650	glory	1	0.0	False
604.492	0.0	0Suff NW	4	604492	detisms	0	1.0	False
605.484	0.0	2Suff PseudoStemNW	24	605484	stumiality	0	1.0	False
606.517	0.0	2Suff PseudoStemNW	24	606517	chierfully	0	1.0	False
607.576	0.0	2Suff PseudoStemNW	24	607576	pinonical	0	1.0	False
608.476	0.0	1Suff w/o Lat.	12	608476	education	1	0.0	False
609.452	0.0	0Suff NW	4	609452	etil	0	1.0	False
610.293	0.0	2Suff Composite	23	610293	commutation	1	1.0	True
612.261	0.0	2Suff w/o Lat.	22	612261	believably	1	1.0	True
614.011	0.0	2Suff RealStemNW	25	614011	deadionist	0	1.0	False
616.212	0.0	1Suff RealStemNW	15	616212	peaceive	0	1.0	False
618.546	0.0	1Suff RealStemNW	15	618546	differify	0	1.0	False
620.597	0.0	2Suff w/ Lat.	21	620597	progressively	1	0.0	False
622.064	0.0	2Suff w/o Lat.	22	622064	logically	1	0.0	False
623.014	0.0	1Suff w/o Lat.	12	623014	polar	1	0.0	False
624.031	0.0	2Suff RealStemNW	25	624031	assassinfully	0	1.0	False
625.165	0.0	0Suff NW	4	625165	gulbs	0	1.0	False
626.223	0.0	0Suff NW	4	626223	fale	0	1.0	False
627.174	0.0	2Suff w/o Lat.	22	627174	materialistic	1	0.0	False
628.616	0.0	0Suff NW	4	628616	onnense	0	1.0	False
629.783	0.0	1Suff RealStemNW	15	629783	periodal	0		False
632.184	0.0	2Suff w/o Lat.	22	632184	partially	1	0.0	False
633.209	0.0	1Suff w/ Lat.	11	633209	persistent	1	0.0	False
634.234	0.0	0Suff NW	4	634234	halk	0	1.0	False
635.885	0.0	1Suff w/o Lat.	12	635885	relation	1	0.0	False
636.952	0.0	2Suff w/o Lat.	22	636952	provocatively	1	0.0	False
638.102	0.0	0Suff w/o Lat.	2	638102	period	1	0.0	False
638.952	0.0	1Suff w/ Lat.	11	638952	predictable	1	0.0	False
640.153	0.0	2Suff Composite	23	640153	canonical	1	0.0	False
641.278	0.0	2Suff RealStemNW	25	641278	globical	0	0.0	True
642.22	0.0	1Suff PseudoStemNW	14	642220	paskful	0	1.0	False
643.37	0.0	2Suff w/o Lat.	22	643370	notification	1	0.0	False
644.462	0.0	1Suff RealStemNW	15	644462	childory	0	1.0	False
645.729	0.0	0Suff NW	4	645729	finiles	0	0.0	True
647.23	0.0	1Suff PseudoStemNW	14	647230	devadive	0	1.0	False
648.547	0.0	2Suff RealStemNW	25	648547	persistalism	0	1.0	False
650.256	0.0	2Suff PseudoStemNW	24	650256	mosimization	0	1.0	False
651.623	0.0	1Suff w/o Lat.	12	651623	aimless	1	0.0	False
652.948	0.0	0Suff w/o Lat.	2	652948	delight	1	0.0	False
653.965	0.0	2Suff PseudoStemNW	24	653965	cunerogially	0	1.0	False
654.949	0.0	1Suff PseudoStemNW	14	654949	fleedy	0	1.0	False
656.016	0.0	2Suff w/o Lat.	22	656016	familiarize	1	0.0	False
657.208	0.0	2Suff w/o Lat.	22	657208	relational	1	0.0	False
658.225	0.0	0Suff NW	4	658225	coppent	0	1.0	False
659.584	0.0	2Suff PseudoStemNW	24	659584	watefulness	0		False
661.984	0.0	2Suff RealStemNW	25	661984	peaceively	0	0.0	True
663.135	0.0	2Suff w/o Lat.	22	663135	realistic	1	0.0	False
663.985	0.0	0Suff NW	4	663985	attossin	0	1.0	False
664.91	0.0	1Suff w/o Lat.	12	664910	forgetful	1	0.0	False
665.977	0.0	1Suff RealStemNW	15	665977	deadic	0	1.0	False
667.444	0.0	0Suff NW	4	667444	steadth	0	1.0	False
668.728	0.0	1Suff PseudoStemNW	14	668728	urmerly	0	1.0	False
669.728	0.0	0Suff w/o Lat.	2	669728	fury	1	0.0	False
670.837	0.0	1Suff w/o Lat.	12	670837	provocative	1	0.0	False
671.904	0.0	0Suff NW	4	671904	girern	0		False
674.313	0.0	1Suff PseudoStemNW	14	674313	aisless	0	0.0	True
675.305	0.0	2Suff w/ Lat.	21	675305	conceptually	1	0.0	False
676.222	0.0	1Suff w/o Lat.	12	676222	hopeful	1	0.0	False
677.056	0.0	0Suff w/ Lat.	1	677056	progress	1	0.0	False
678.014	0.0	2Suff RealStemNW	25	678014	differalism	0	0.0	True
679.448	0.0	1Suff PseudoStemNW	14	679448	fralatic	0	1.0	False
680.648	0.0	0Suff NW	4	680648	concoler	0	1.0	False
681.565	0.0	0Suff NW	4	681565	manfin	0	1.0	False
682.474	0.0	2Suff w/o Lat.	22	682474	decisiveness	1	0.0	False
683.908	0.0	1Suff w/o Lat.	12	683908	magnetic	1	0.0	False
685.017	0.0	2Suff Composite	23	685017	confederation	1	0.0	False
686.434	0.0	2Suff w/o Lat.	22	686434	musically	1	0.0	False
687.276	0.0	2Suff PseudoStemNW	24	687276	diructorship	0	1.0	False
688.276	0.0	0Suff NW	4	688276	affall	0	1.0	False
689.293	0.0	1Suff w/o Lat.	12	689293	familiar	1	0.0	False
690.276	0.0	1Suff RealStemNW	15	690276	confessate	0	1.0	False
691.452	0.0	1Suff PseudoStemNW	14	691452	prebitable	0	1.0	False
692.527	0.0	0Suff w/o Lat.	2	692527	logic	1	0.0	False
693.427	0.0	1Suff w/o Lat.	12	693427	functional	1	0.0	False
694.503	0.0	0Suff w/o Lat.	2	694503	cheer	1	0.0	False
695.37	0.0	2Suff RealStemNW	25	695370	editionate	0	1.0	False
696.395	0.0	2Suff PseudoStemNW	24	696395	falality	0	1.0	False
697.996	0.0	1Suff RealStemNW	15	697996	exhaustful	0	1.0	False
699.388	0.0	2Suff RealStemNW	25	699388	predictator	0	0.0	True
700.971	0.0	0Suff NW	4	700971	perburve	0	1.0	False
702.205	0.0	1Suff w/o Lat.	12	702205	cheerful	1	0.0	False
703.147	0.0	2Suff PseudoStemNW	24	703147	ewsibally	0	1.0	False
704.197	0.0	1Suff w/o Lat.	12	704197	decorate	1	0.0	False
705.64	0.0	2Suff w/o Lat.	22	705640	ethically	1	0.0	False
706.64	0.0	0Suff w/o Lat.	2	706640	intense	1	0.0	False
707.698	0.0	2Suff w/o Lat.	22	707698	considerately	1	1.0	True
709.382	0.0	0Suff NW	4	709382	mistile	0	1.0	False
711.275	0.0	1Suff RealStemNW	15	711275	delightive	0		False
713.667	0.0	1Suff w/o Lat.	12	713667	hopeless	1	0.0	False
714.651	0.0	1Suff PseudoStemNW	14	714651	distawksive	0	1.0	False
715.718	0.0	0Suff w/o Lat.	2	715718	transit	1	0.0	False
716.968	0.0	0Suff w/o Lat.	2	716968	friend	1		False
719.377	0.0	0Suff NW	4	719377	rerard	0	1.0	False
720.803	0.0	2Suff PseudoStemNW	24	720803	desalkation	0	1.0	False
721.928	0.0	2Suff w/o Lat.	22	721928	statistically	1	0.0	False
723.487	0.0	2Suff w/o Lat.	22	723487	easily	1	0.0	False
724.587	0.0	1Suff PseudoStemNW	14	724587	affaidative	0	1.0	False
725.762	0.0	0Suff NW	4	725762	awd	0	1.0	False
726.946	0.0	2Suff PseudoStemNW	24	726946	gramiously	0	1.0	False
728.405	0.0	2Suff w/o Lat.	22	728405	seasonally	1	1.0	True
730.23	0.0	2Suff RealStemNW	25	730230	harmiously	0	0.0	True
732.256	0.0	2Suff w/o Lat.	22	732256	harmlessly	1	0.0	False
733.198	0.0	1Suff w/o Lat.	12	733198	persuasive	1	0.0	False
734.965	0.0	1Suff w/o Lat.	12	734965	triumphant	1	0.0	False
735.982	0.0	1Suff w/ Lat.	11	735982	impression	1	0.0	False
736.866	0.0	2Suff PseudoStemNW	24	736866	utelessness	0	1.0	False
738.008	0.0	1Suff w/o Lat.	12	738008	dramatize	1	0.0	False
739.175	0.0	2Suff PseudoStemNW	24	739175	reratively	0	1.0	False
740.259	0.0	2Suff PseudoStemNW	24	740259	eltensively	0	1.0	False
741.517	0.0	1Suff PseudoStemNW	14	741517	chotintical	0		False
743.918	0.0	0Suff w/o Lat.	2	743918	poet	1	1.0	True
744.71	0.0	2Suff w/o Lat.	22	744710	polarize	1	0.0	False
745.727	0.0	1Suff w/o Lat.	12	745727	fatal	1	0.0	False
746.636	0.0	1Suff RealStemNW	15	746636	agreeless	0	0.0	True
747.527	0.0	0Suff w/o Lat.	2	747527	fast	1	0.0	False
748.428	0.0	0Suff w/o Lat.	2	748428	moist	1	0.0	False
845.424	0.0	1Suff RealStemNW	15	845424	polit	0	1.0	False
846.441	0.0	0Suff NW	4	846441	gloo	0	1.0	False
847.617	0.0	2Suff RealStemNW	25	847617	aimiously	0	0.0	True
849.409	0.0	2Suff w/o Lat.	22	849409	thickener	1	0.0	False
850.651	0.0	2Suff PseudoStemNW	24	850651	rerativity	0	1.0	False
851.743	0.0	2Suff RealStemNW	25	851743	ritualional	0	1.0	False
853.568	0.0	0Suff NW	4	853568	fars	0	1.0	False
854.66	0.0	0Suff w/o Lat.	2	854660	profit	1	0.0	False
855.777	0.0	0Suff NW	4	855777	rumic	0	1.0	False
856.836	0.0	2Suff PseudoStemNW	24	856836	coppentator	0	1.0	False
857.828	0.0	1Suff w/o Lat.	12	857828	notable	1	0.0	False
859.32	0.0	1Suff RealStemNW	15	859320	competitful	0	1.0	False
860.696	0.0	1Suff RealStemNW	15	860696	successate	0	1.0	False
862.129	0.0	1Suff w/o Lat.	12	862129	healthy	1	0.0	False
863.196	0.0	2Suff w/o Lat.	22	863196	healthily	1	0.0	False
864.238	0.0	0Suff w/o Lat.	2	864238	nerve	1	0.0	False
865.222	0.0	1Suff w/o Lat.	12	865222	frightful	1	0.0	False
866.239	0.0	1Suff PseudoStemNW	14	866239	eetward	0	1.0	False
867.289	0.0	0Suff w/o Lat.	2	867289	peace	1	0.0	False
868.215	0.0	2Suff w/o Lat.	22	868215	fatalism	1	0.0	False
869.398	0.0	0Suff w/o Lat.	2	869398	sterile	1	0.0	False
871.307	0.0	0Suff w/o Lat.	2	871307	protect	1	0.0	False
872.158	0.0	0Suff NW	4	872158	hyth	0	1.0	False
873.2	0.0	0Suff w/ Lat.	1	873200	instruct	1	0.0	False
874.108	0.0	1Suff RealStemNW	15	874108	persistify	0	0.0	True
876.2	0.0	1Suff w/o Lat.	12	876200	sterilize	1	0.0	False
877.142	0.0	2Suff w/o Lat.	22	877142	distinctively	1	0.0	False
878.226	0.0	0Suff w/o Lat.	2	878226	base	1	0.0	False
879.11	0.0	0Suff w/o Lat.	2	879110	rest	1	0.0	False
879.943	0.0	2Suff w/o Lat.	22	879943	cheerfully	1	0.0	False
881.077	0.0	1Suff w/ Lat.	11	881077	affirmative	1	0.0	False
882.269	0.0	1Suff w/o Lat.	12	882269	agreeable	1	0.0	False
883.494	0.0	1Suff PseudoStemNW	14	883494	falumful	0	1.0	False
884.603	0.0	0Suff w/o Lat.	2	884603	ceremony	1	0.0	False
885.562	0.0	1Suff RealStemNW	15	885562	basly	0	1.0	False
886.737	0.0	2Suff w/o Lat.	22	886737	painlessly	1	0.0	False
887.779	0.0	2Suff Composite	23	887779	autistic	1	0.0	False
888.988	0.0	1Suff w/o Lat.	12	888988	ceremonial	1	0.0	False
890.138	0.0	0Suff NW	4	890138	reut	0	1.0	False
891.147	0.0	2Suff PseudoStemNW	24	891147	esdybitionism	0	1.0	False
892.505	0.0	1Suff PseudoStemNW	14	892505	headthy	0	1.0	False
893.639	0.0	1Suff RealStemNW	15	893639	poetal	0	1.0	False
894.84	0.0	1Suff w/o Lat.	12	894840	considerate	1	0.0	False
895.948	0.0	1Suff w/o Lat.	12	895948	competitive	1	0.0	False
897.057	0.0	1Suff w/o Lat.	12	897057	protection	1	0.0	False
898.224	0.0	0Suff NW	4	898224	meabon	0	1.0	False
899.299	0.0	1Suff w/o Lat.	12	899299	wakeful	1	0.0	False
900.65	0.0	1Suff w/o Lat.	12	900650	useful	1	1.0	True
901.717	0.0	2Suff w/ Lat.	21	901717	impressionist	1	0.0	False
903.601	0.0	1Suff PseudoStemNW	14	903601	grameful	0	1.0	False
904.826	0.0	0Suff NW	4	904826	orifad	0	1.0	False
905.776	0.0	2Suff w/o Lat.	22	905776	protectionist	1	0.0	False
907.493	0.0	1Suff w/o Lat.	12	907493	realist	1	0.0	False
908.477	0.0	0Suff NW	4	908477	provame	0	1.0	False
909.494	0.0	2Suff w/o Lat.	22	909494	thoughtlessly	1	0.0	False
910.919	0.0	1Suff PseudoStemNW	14	910919	halkless	0	1.0	False
912.045	0.0	0Suff NW	4	912045	eet	0	1.0	False
913.12	0.0	2Suff PseudoStemNW	24	913120	restittably	0	1.0	False
914.437	0.0	2Suff PseudoStemNW	24	914437	adstification	0	1.0	False
915.571	0.0	1Suff RealStemNW	15	915571	wakeive	0	1.0	False
916.821	0.0	1Suff w/o Lat.	12	916821	furious	1	0.0	False
917.922	0.0	1Suff RealStemNW	15	917922	familior	0	1.0	False
919.33	0.0	1Suff w/o Lat.	12	919330	easy	1	0.0	False
921.031	0.0	1Suff w/ Lat.	11	921031	available	1	0.0	False
922.015	0.0	2Suff RealStemNW	25	922015	fasticly	0	1.0	False
923.932	0.0	2Suff w/o Lat.	22	923932	partiality	1	0.0	False
925.691	0.0	2Suff w/o Lat.	22	925691	definitive	1		False
928.091	0.0	2Suff w/o Lat.	22	928091	fatalist	1	0.0	False
929.475	0.0	2Suff PseudoStemNW	24	929475	banically	0	1.0	False
930.576	0.0	0Suff w/o Lat.	2	930576	pain	1	0.0	False
931.459	0.0	2Suff PseudoStemNW	24	931459	gloofully	0	1.0	False
932.584	0.0	0Suff NW	4	932584	appigent	0	1.0	False
933.618	0.0	2Suff RealStemNW	25	933618	exhaustfully	0	0.0	True
935.144	0.0	2Suff RealStemNW	25	935144	characterional	0	1.0	False
936.602	0.0	1Suff RealStemNW	15	936602	isolatate	0	0.0	True
938.595	0.0	1Suff RealStemNW	15	938595	useive	0	1.0	False
939.762	0.0	2Suff w/o Lat.	22	939762	developmental	1	0.0	False
940.82	0.0	1Suff PseudoStemNW	14	940820	worchless	0	1.0	False
942.388	0.0	2Suff w/ Lat.	21	942388	mistakenly	1	1.0	True
943.738	0.0	1Suff PseudoStemNW	14	943738	orifadate	0	1.0	False
944.997	0.0	2Suff RealStemNW	25	944997	friendionist	0	1.0	False
946.205	0.0	2Suff w/o Lat.	22	946205	poetical	1	0.0	False
947.831	0.0	1Suff RealStemNW	15	947831	persuasful	0	1.0	False
949.615	0.0	2Suff w/o Lat.	22	949615	magnetically	1	0.0	False
950.923	0.0	2Suff w/o Lat.	22	950923	friendliness	1	0.0	False
952.382	0.0	2Suff PseudoStemNW	24	952382	snightfully	0	1.0	False
953.491	0.0	0Suff w/o Lat.	2	953491	success	1	0.0	False
954.475	0.0	0Suff NW	4	954475	snought	0	0.0	True
955.925	0.0	0Suff NW	4	955925	wate	0	1.0	False
957.259	0.0	0Suff w/o Lat.	2	957259	design	1	0.0	False
958.267	0.0	2Suff Composite	23	958267	pasteurization	1	1.0	True
959.568	0.0	0Suff NW	4	959568	stoteld	0	1.0	False
960.576	0.0	0Suff NW	4	960576	han	0	1.0	False
961.543	0.0	1Suff PseudoStemNW	14	961543	mosimize	0		False
963.936	0.0	0Suff NW	4	963936	desalk	0	1.0	False
964.953	0.0	0Suff w/o Lat.	2	964953	edit	1	0.0	False
965.978	0.0	2Suff w/o Lat.	22	965978	decorative	1	0.0	False
966.978	0.0	2Suff w/o Lat.	22	966978	awfully	1	0.0	False
967.995	0.0	1Suff PseudoStemNW	14	967995	arful	0	1.0	False
969.012	0.0	2Suff w/ Lat.	21	969012	availability	1	0.0	False
970.138	0.0	1Suff w/o Lat.	12	970138	government	1	0.0	False
971.413	0.0	2Suff RealStemNW	25	971413	decisishness	0	0.0	True
972.822	0.0	0Suff NW	4	972822	ippune	0	1.0	False
974.122	0.0	1Suff RealStemNW	15	974122	availless	0	1.0	False
975.439	0.0	0Suff w/o Lat.	2	975439	triumph	1	0.0	False
976.523	0.0	0Suff w/o Lat.	2	976523	guard	1	0.0	False
977.532	0.0	1Suff PseudoStemNW	14	977532	analkable	0	1.0	False
978.499	0.0	1Suff w/o Lat.	12	978499	graceful	1	1.0	True
979.724	0.0	1Suff w/ Lat.	11	979724	exhibition	1	0.0	False
980.974	0.0	1Suff w/o Lat.	12	980974	architecture	1	0.0	False
981.833	0.0	2Suff PseudoStemNW	24	981833	concolerably	0	1.0	False
982.867	0.0	2Suff RealStemNW	25	982867	subjectously	0	0.0	True
983.767	0.0	0Suff w/o Lat.	2	983767	fright	1	0.0	False
984.717	0.0	0Suff w/o Lat.	2	984717	material	1	0.0	False
985.609	0.0	0Suff NW	4	985609	falget	0		False
988.01	0.0	2Suff w/o Lat.	22	988010	executioner	1	0.0	False
989.252	0.0	0Suff NW	4	989252	artlitack	0	1.0	False
990.169	0.0	0Suff w/o Lat.	2	990169	child	1	0.0	False
990.986	0.0	1Suff w/o Lat.	12	990986	peaceful	1	0.0	False
1005.324	0.0	2Suff RealStemNW	25	1005324	ailistic	0	1.0	False
1007.099	0.0	0Suff w/o Lat.	2	1007099	health	1	0.0	False
1007.966	0.0	1Suff w/o Lat.	12	1007966	restless	1	0.0	False
1008.925	0.0	2Suff PseudoStemNW	24	1008925	avoldability	0	1.0	False
1010.558	0.0	2Suff PseudoStemNW	24	1010558	worchlessness	0	1.0	False
1011.726	0.0	0Suff NW	4	1011726	thack	0	1.0	False
1012.743	0.0	0Suff w/ Lat.	1	1012743	affect	1	0.0	False
1013.759	0.0	0Suff w/o Lat.	2	1013759	music	1	0.0	False
1014.643	0.0	1Suff RealStemNW	15	1014643	manen	0	1.0	False
1015.685	0.0	2Suff w/o Lat.	22	1015685	competitively	1	0.0	False
1016.86	0.0	2Suff RealStemNW	25	1016860	orderionist	0	1.0	False
1017.919	0.0	1Suff w/o Lat.	12	1017919	gracious	1	0.0	False
1019.036	0.0	1Suff w/o Lat.	12	1019036	childish	1	0.0	False
1020.086	0.0	1Suff PseudoStemNW	14	1020086	gulbsian	0	1.0	False
1021.037	0.0	2Suff RealStemNW	25	1021037	familiately	0	1.0	False
1022.145	0.0	2Suff Composite	23	1022145	mechanistic	1	0.0	False
1023.904	0.0	0Suff NW	4	1023904	deabon	0	1.0	False
1024.896	0.0	0Suff w/ Lat.	1	1024896	predict	1	0.0	False
1026.805	0.0	0Suff NW	4	1026805	sushect	0	1.0	False
1027.755	0.0	1Suff w/o Lat.	12	1027755	ethical	1	0.0	False
1028.714	0.0	1Suff RealStemNW	15	1028714	eany	0	1.0	False
1029.681	0.0	2Suff PseudoStemNW	24	1029681	essoilially	0	1.0	False
1030.615	0.0	0Suff w/ Lat.	1	1030615	exhibit	1	0.0	False
1031.848	0.0	0Suff w/o Lat.	2	1031848	direct	1	0.0	False
1032.865	0.0	2Suff w/o Lat.	22	1032865	usefully	1	0.0	False
1033.807	0.0	2Suff RealStemNW	25	1033807	moistantly	0	1.0	False
1035.258	0.0	0Suff w/o Lat.	2	1035258	rhythm	1	0.0	False
1036.175	0.0	2Suff w/o Lat.	22	1036175	hopelessness	1	0.0	False
1037.592	0.0	0Suff w/o Lat.	2	1037592	glee	1	0.0	False
1038.784	0.0	1Suff PseudoStemNW	14	1038784	mowthure	0	1.0	False
1040.001	0.0	2Suff RealStemNW	25	1040001	easery	0	1.0	False
1041.001	0.0	1Suff PseudoStemNW	14	1041001	ramial	0	1.0	False
1042.027	0.0	2Suff PseudoStemNW	24	1042027	devesugmental	0	1.0	False
1043.135	0.0	1Suff RealStemNW	15	1043135	idealate	0	1.0	False
1044.019	0.0	2Suff w/ Lat.	21	1044019	extensively	1	1.0	True
1045.319	0.0	2Suff w/o Lat.	22	1045319	hopelessly	1	0.0	False
1046.395	0.0	0Suff NW	4	1046395	atrie	0	1.0	False
1047.387	0.0	1Suff w/o Lat.	12	1047387	intensive	1	0.0	False
1048.429	0.0	2Suff w/o Lat.	22	1048429	cheerfulness	1	0.0	False
1049.337	0.0	2Suff RealStemNW	25	1049337	confessality	0	1.0	False
1050.763	0.0	2Suff PseudoStemNW	24	1050763	peadership	0	1.0	False
1051.88	0.0	0Suff NW	4	1051880	betiece	0	1.0	False
1052.855	0.0	1Suff RealStemNW	15	1052855	directar	0	1.0	False
1053.914	0.0	1Suff PseudoStemNW	14	1053914	ewsibal	0	1.0	False
1055.039	0.0	2Suff w/o Lat.	22	1055039	immunization	1	0.0	False
1056.148	0.0	1Suff PseudoStemNW	14	1056148	betiecable	0	1.0	False
1057.156	0.0	1Suff w/o Lat.	12	1057156	materialist	1	0.0	False
1058.732	0.0	2Suff w/o Lat.	22	1058732	thankfulness	1	0.0	False
1059.69	0.0	2Suff Composite	23	1059690	vexation	1	1.0	True
1060.757	0.0	0Suff NW	4	1060757	stitile	0	0.0	True
1061.991	0.0	1Suff w/o Lat.	12	1061991	decisive	1		False
1064.392	0.0	2Suff PseudoStemNW	24	1064392	paftiality	0	1.0	False
1065.717	0.0	1Suff PseudoStemNW	14	1065717	nolify	0	0.0	True
1066.951	0.0	0Suff w/o Lat.	2	1066951	regret	1	0.0	False
1068.043	0.0	2Suff PseudoStemNW	24	1068043	deabonably	0	1.0	False
1069.043	0.0	1Suff PseudoStemNW	14	1069043	rhylphic	0	1.0	False
1070.177	0.0	1Suff w/o Lat.	12	1070177	original	1	0.0	False
1071.202	0.0	0Suff NW	4	1071202	chird	0	1.0	False
1072.436	0.0	2Suff w/o Lat.	22	1072436	forgetfulness	1	0.0	False
1073.378	0.0	0Suff w/o Lat.	2	1073378	note	1	0.0	False
1074.345	0.0	2Suff RealStemNW	25	1074345	isolatmental	0	1.0	False
1075.295	0.0	1Suff RealStemNW	15	1075295	marginic	0	1.0	False
1076.746	0.0	0Suff w/o Lat.	2	1076746	educate	1	0.0	False
1077.754	0.0	2Suff Composite	23	1077754	revitalization	1	0.0	False
1079.163	0.0	1Suff w/o Lat.	12	1079163	friendly	1	0.0	False
1080.03	0.0	2Suff PseudoStemNW	24	1080030	posicarization	0	1.0	False
1081.139	0.0	2Suff Composite	23	1081139	organization	1	0.0	False
1082.189	0.0	2Suff RealStemNW	25	1082189	decisfully	0	0.0	True
1083.748	0.0	2Suff w/o Lat.	22	1083748	idealization	1	0.0	False
1084.865	0.0	2Suff w/o Lat.	22	1084865	polarity	1	0.0	False
1085.882	0.0	1Suff RealStemNW	15	1085882	assassinion	0	1.0	False
1087.315	0.0	2Suff PseudoStemNW	24	1087315	pasnetically	0	1.0	False
1088.332	0.0	2Suff PseudoStemNW	24	1088332	thackener	0	1.0	False
1089.441	0.0	2Suff PseudoStemNW	24	1089441	pafferentiate	0	1.0	False
1090.9	0.0	2Suff w/o Lat.	22	1090900	aimlessly	1	0.0	False
1092.034	0.0	1Suff PseudoStemNW	14	1092034	glibal	0	1.0	False
1093.551	0.0	2Suff RealStemNW	25	1093551	polioner	0	1.0	False
1094.559	0.0	1Suff RealStemNW	15	1094559	hopeable	0	1.0	False
1096.277	0.0	2Suff w/o Lat.	22	1096277	designation	1	0.0	False
1097.819	0.0	2Suff w/o Lat.	22	1097819	occasionally	1	0.0	False
1098.994	0.0	2Suff PseudoStemNW	24	1098994	imoatization	0	1.0	False
1100.203	0.0	2Suff RealStemNW	25	1100203	persuasfully	0	0.0	True
1101.361	0.0	1Suff PseudoStemNW	14	1101361	diruction	0	1.0	False
1102.67	0.0	2Suff Composite	23	1102670	inflammation	1	0.0	False
1103.962	0.0	2Suff RealStemNW	25	1103962	governancial	0	1.0	False
1105.288	0.0	2Suff w/o Lat.	22	1105288	furiously	1	0.0	False
1106.922	0.0	2Suff w/o Lat.	22	1106922	exhaustively	1		False
1109.322	0.0	2Suff PseudoStemNW	24	1109322	tipeliness	0	1.0	False
1110.756	0.0	1Suff w/o Lat.	12	1110756	fasten	1	0.0	False
1111.79	0.0	1Suff PseudoStemNW	14	1111790	chierful	0	1.0	False
1112.865	0.0	1Suff w/o Lat.	12	1112865	leader	1	0.0	False
1113.815	0.0	2Suff RealStemNW	25	1113815	fatalize	0	1.0	False
1115.633	0.0	0Suff w/o Lat.	2	1115633	globe	1	0.0	False
1116.675	0.0	2Suff w/o Lat.	22	1116675	awfulness	1	0.0	False
1117.817	0.0	2Suff PseudoStemNW	24	1117817	nerbously	0	1.0	False
1118.859	0.0	1Suff w/ Lat.	11	1118859	conceptual	1	0.0	False
1120.101	0.0	0Suff NW	4	1120101	faulm	0	1.0	False
1121.126	0.0	2Suff PseudoStemNW	24	1121126	paftially	0	1.0	False
1122.276	0.0	2Suff w/o Lat.	22	1122276	editorship	1	1.0	True
1123.652	0.0	0Suff NW	4	1123652	mevion	0	1.0	False
1124.735	0.0	2Suff w/o Lat.	22	1124735	relativism	1	0.0	False
1125.869	0.0	2Suff w/o Lat.	22	1125869	outwardly	1		False
1128.261	0.0	0Suff w/o Lat.	2	1128261	decide	1		False
1130.671	0.0	2Suff w/o Lat.	22	1130671	assassination	1	0.0	False
1132.688	0.0	2Suff w/o Lat.	22	1132688	painfully	1	0.0	False
1133.696	0.0	2Suff w/o Lat.	22	1133696	leadership	1	0.0	False
1134.58	0.0	2Suff PseudoStemNW	24	1134580	squasification	0	1.0	False
1135.522	0.0	2Suff PseudoStemNW	24	1135522	analkability	0	1.0	False
1136.489	0.0	2Suff w/o Lat.	22	1136489	gleefully	1	0.0	False
1137.764	0.0	2Suff RealStemNW	25	1137764	sleepery	0	0.0	True
1138.673	0.0	2Suff RealStemNW	25	1138673	notural	0	1.0	False
1140.082	0.0	2Suff RealStemNW	25	1140082	believator	0	1.0	False
1141.315	0.0	1Suff RealStemNW	15	1141315	realify	0	1.0	False
1142.549	0.0	1Suff PseudoStemNW	14	1142549	tipely	0	1.0	False
1143.491	0.0	1Suff RealStemNW	15	1143491	sterilist	0	1.0	False
1144.408	0.0	2Suff RealStemNW	25	1144408	graceively	0	1.0	False
1145.942	0.0	2Suff w/o Lat.	22	1145942	persuasively	1	0.0	False
1147.659	0.0	1Suff w/o Lat.	12	1147659	useless	1	0.0	False
1148.593	0.0	1Suff w/o Lat.	12	1148593	designate	1	0.0	False
1194.79	0.0	1Suff RealStemNW	15	1194790	restable	0	0.0	True
1195.874	0.0	2Suff w/o Lat.	22	1195874	guardianship	1	0.0	False
1196.958	0.0	2Suff w/o Lat.	22	1196958	marginally	1	0.0	False
1198.466	0.0	1Suff w/o Lat.	12	1198466	execution	1	0.0	False
1200.25	0.0	1Suff w/o Lat.	12	1200250	stealthy	1	0.0	False
1201.576	0.0	0Suff w/o Lat.	2	1201576	relate	1	0.0	False
1202.526	0.0	1Suff RealStemNW	15	1202526	immunist	0	1.0	False
1204.443	0.0	0Suff NW	4	1204443	coul	0	1.0	False
1205.494	0.0	0Suff w/o Lat.	2	1205494	wake	1	0.0	False
1206.752	0.0	0Suff NW	4	1206752	exufant	0	1.0	False
1207.711	0.0	0Suff NW	4	1207711	miccess	0	1.0	False
1208.661	0.0	2Suff RealStemNW	25	1208661	relatifiable	0	1.0	False
1210.303	0.0	2Suff Composite	23	1210303	stratification	1	0.0	False
1211.937	0.0	1Suff w/o Lat.	12	1211937	different	1	0.0	False
1212.871	0.0	2Suff PseudoStemNW	24	1212871	sorkener	0	1.0	False
1213.896	0.0	2Suff w/o Lat.	22	1213896	adaptability	1	0.0	False
1215.03	0.0	0Suff w/o Lat.	2	1215030	time	1	0.0	False
1215.93	0.0	0Suff NW	4	1215930	dehone	0	1.0	False
1216.864	0.0	2Suff PseudoStemNW	24	1216864	distawksively	0	1.0	False
1217.822	0.0	2Suff w/o Lat.	22	1217822	uselessness	1	0.0	False
1219.098	0.0	1Suff w/o Lat.	12	1219098	harmless	1	0.0	False
1220.106	0.0	0Suff w/o Lat.	2	1220106	statistic	1	0.0	False
1221.182	0.0	2Suff RealStemNW	25	1221182	projectliness	0	1.0	False
1222.699	0.0	1Suff PseudoStemNW	14	1222699	lenctional	0	1.0	False
1223.958	0.0	1Suff RealStemNW	15	1223958	soulive	0	1.0	False
1224.908	0.0	2Suff w/o Lat.	22	1224908	restlessness	1	0.0	False
1226.117	0.0	0Suff w/o Lat.	2	1226117	margin	1	0.0	False
1227.159	0.0	1Suff w/ Lat.	11	1227159	mistaken	1	0.0	False
1228.259	0.0	1Suff RealStemNW	15	1228259	provocatful	0	0.0	True
1229.301	0.0	1Suff w/o Lat.	12	1229301	glorious	1	0.0	False
1230.36	0.0	2Suff RealStemNW	25	1230360	notifilessly	0	1.0	False
1232.127	0.0	1Suff w/o Lat.	12	1232127	sleepy	1	0.0	False
1233.194	0.0	0Suff NW	4	1233194	paffer	0	1.0	False
1234.711	0.0	0Suff NW	4	1234711	bant	0	1.0	False
1235.82	0.0	2Suff PseudoStemNW	24	1235820	snoughtlessly	0	1.0	False
1236.82	0.0	2Suff PseudoStemNW	24	1236820	chirdishness	0	1.0	False
1237.837	0.0	2Suff w/o Lat.	22	1237837	timeliness	1	0.0	False
1238.937	0.0	2Suff w/o Lat.	22	1238937	stealthily	1	0.0	False
1240.721	0.0	2Suff RealStemNW	25	1240721	realional	0	1.0	False
1242.422	0.0	1Suff PseudoStemNW	14	1242422	subplencial	0	1.0	False
1243.339	0.0	0Suff w/o Lat.	2	1243339	worth	1	0.0	False
1244.556	0.0	1Suff RealStemNW	15	1244556	financeic	0	1.0	False
1245.564	0.0	2Suff PseudoStemNW	24	1245564	vefation	0	1.0	False
1246.731	0.0	1Suff w/o Lat.	12	1246731	transition	1	0.0	False
1247.807	0.0	2Suff PseudoStemNW	24	1247807	mistilenly	0	1.0	False
1248.974	0.0	2Suff PseudoStemNW	24	1248974	affallation	0	1.0	False
1250.157	0.0	0Suff NW	4	1250157	thiend	0	1.0	False
1251.341	0.0	0Suff NW	4	1251341	devesug	0	1.0	False
1252.183	0.0	1Suff w/o Lat.	12	1252183	originate	1	0.0	False
1254.042	0.0	1Suff w/o Lat.	12	1254042	confession	1	0.0	False
1255.159	0.0	2Suff RealStemNW	25	1255159	executarity	0	1.0	False
1256.484	0.0	2Suff PseudoStemNW	24	1256484	degorative	0	0.0	True
1257.968	0.0	0Suff NW	4	1257968	wroty	0	1.0	False
1259.152	0.0	2Suff w/o Lat.	22	1259152	marketability	1	0.0	False
1260.544	0.0	1Suff PseudoStemNW	14	1260544	wrotious	0	1.0	False
1261.769	0.0	2Suff RealStemNW	25	1261769	transitality	0	1.0	False
1263.436	0.0	2Suff w/o Lat.	22	1263436	isolationism	1	1.0	True
1264.578	0.0	1Suff w/o Lat.	12	1264578	thicken	1	0.0	False
1265.712	0.0	2Suff RealStemNW	25	1265712	fatantly	0	1.0	False
1266.779	0.0	1Suff PseudoStemNW	14	1266779	goulty	0	1.0	False
1267.813	0.0	1Suff RealStemNW	15	1267813	exhibitate	0	1.0	False
1268.913	0.0	2Suff Composite	23	1268913	utilization	1	1.0	True
1270.114	0.0	2Suff RealStemNW	25	1270114	substanceical	0	1.0	False
1271.806	0.0	1Suff PseudoStemNW	14	1271806	hodeful	0	1.0	False
1272.756	0.0	1Suff w/o Lat.	12	1272756	logical	1	0.0	False
1274.206	0.0	1Suff PseudoStemNW	14	1274206	nolable	0	1.0	False
1276.007	0.0	0Suff w/o Lat.	2	1276007	substance	1	0.0	False
1278.133	0.0	1Suff PseudoStemNW	14	1278133	orifadal	0	1.0	False
1279.116	0.0	2Suff w/o Lat.	22	1279116	nervousness	1	0.0	False
1280.383	0.0	0Suff w/o Lat.	2	1280383	execute	1	0.0	False
1281.625	0.0	1Suff w/o Lat.	12	1281625	regrettable	1	0.0	False
1283.326	0.0	1Suff w/o Lat.	12	1283326	validate	1	0.0	False
1284.393	0.0	1Suff PseudoStemNW	14	1284393	affallion	0	1.0	False
1285.427	0.0	2Suff w/ Lat.	21	1285427	impressionism	1	0.0	False
1287.052	0.0	1Suff PseudoStemNW	14	1287052	chansotion	0	1.0	False
1288.144	0.0	2Suff RealStemNW	25	1288144	soulively	0	1.0	False
1289.845	0.0	0Suff NW	4	1289845	hesa	0	1.0	False
1290.728	0.0	2Suff PseudoStemNW	24	1290728	prebitably	0	1.0	False
1292.27	0.0	2Suff Composite	23	1292270	dramatization	1	0.0	False
1293.512	0.0	2Suff RealStemNW	25	1293512	provocatfully	0	0.0	True
1294.696	0.0	2Suff PseudoStemNW	24	1294696	orifadally	0	1.0	False
1295.763	0.0	1Suff PseudoStemNW	14	1295763	thiendly	0	1.0	False
1297.622	0.0	1Suff RealStemNW	15	1297622	extensful	0	0.0	True
1299.156	0.0	0Suff NW	4	1299156	chier	0	1.0	False
1300.173	0.0	0Suff w/ Lat.	1	1300173	impress	1	0.0	False
1301.231	0.0	1Suff w/o Lat.	12	1301231	editor	1	0.0	False
1302.348	0.0	0Suff NW	4	1302348	priueur	0		False
1304.749	0.0	2Suff RealStemNW	25	1304749	financeical	0	1.0	False
1306.058	0.0	0Suff NW	4	1306058	chotintic	0	1.0	False
1307.167	0.0	1Suff RealStemNW	15	1307167	gracance	0	1.0	False
1308.059	0.0	2Suff PseudoStemNW	24	1308059	cidlical	0	1.0	False
1308.959	0.0	1Suff PseudoStemNW	14	1308959	sushective	0	1.0	False
1309.792	0.0	0Suff NW	4	1309792	tipe	0	1.0	False
1310.643	0.0	2Suff PseudoStemNW	24	1310643	stitilization	0	1.0	False
1312.018	0.0	0Suff NW	4	1312018	paft	0	1.0	False
1312.893	0.0	1Suff PseudoStemNW	14	1312893	snightful	0	1.0	False
1313.86	0.0	1Suff w/o Lat.	12	1313860	substantial	1	1.0	True
1314.769	0.0	0Suff NW	4	1314769	pead	0	1.0	False
1315.736	0.0	0Suff w/o Lat.	2	1315736	decor	1	1.0	True
1316.578	0.0	1Suff RealStemNW	15	1316578	relatful	0	0.0	True
1317.578	0.0	2Suff RealStemNW	25	1317578	quotfully	0	1.0	False
1318.645	0.0	2Suff PseudoStemNW	24	1318645	perburbation	0	0.0	True
1320.129	0.0	2Suff w/o Lat.	22	1320129	governmental	1	0.0	False
1322.413	0.0	0Suff NW	4	1322413	corzess	0	1.0	False
1323.288	0.0	1Suff PseudoStemNW	14	1323288	farsen	0	1.0	False
1324.239	0.0	2Suff RealStemNW	25	1324239	periodally	0	0.0	True
1325.372	0.0	2Suff RealStemNW	25	1325372	isolatliness	0	1.0	False
1327.081	0.0	2Suff PseudoStemNW	24	1327081	cossetitively	0	1.0	False
1328.115	0.0	2Suff PseudoStemNW	24	1328115	chotintically	0	1.0	False
1328.99	0.0	2Suff PseudoStemNW	24	1328990	artlitackural	0	1.0	False
1329.882	0.0	2Suff RealStemNW	25	1329882	idealional	0	1.0	False
1331.349	0.0	1Suff w/o Lat.	12	1331349	accidental	1	0.0	False
1332.499	0.0	0Suff NW	4	1332499	wead	0	1.0	False
1333.491	0.0	2Suff Composite	23	1333491	deterministic	1	0.0	False
1334.958	0.0	0Suff NW	4	1334958	thash	0	1.0	False
1336.101	0.0	2Suff w/o Lat.	22	1336101	architectural	1	0.0	False
1337.251	0.0	2Suff w/o Lat.	22	1337251	decorator	1	0.0	False
1338.851	0.0	0Suff w/o Lat.	2	1338851	thank	1	0.0	False
1339.827	0.0	2Suff w/o Lat.	22	1339827	globally	1	0.0	False
1417.634	0.0	2Suff w/ Lat.	21	1417634	persistently	1	0.0	False
1419.209	0.0	2Suff w/o Lat.	22	1419209	accidentally	1	0.0	False
1420.176	0.0	1Suff w/o Lat.	12	1420176	global	1	0.0	False
1421.06	0.0	0Suff w/ Lat.	1	1421060	persist	1	0.0	False
1422.244	0.0	1Suff PseudoStemNW	14	1422244	essoilial	0	1.0	False
1423.344	0.0	2Suff RealStemNW	25	1423344	familierage	0	1.0	False
1424.444	0.0	2Suff w/o Lat.	22	1424444	relationship	1	0.0	False
1425.903	0.0	0Suff NW	4	1425903	uspasion	0	1.0	False
1426.92	0.0	2Suff RealStemNW	25	1426920	hopeively	0	1.0	False
1427.954	0.0	2Suff w/o Lat.	22	1427954	confessional	1	1.0	True
1430.163	0.0	1Suff RealStemNW	15	1430163	magnetal	0	1.0	False
1432.063	0.0	1Suff w/o Lat.	12	1432063	gleeful	1	0.0	False
1433.606	0.0	2Suff w/o Lat.	22	1433606	functionally	1	0.0	False
1434.631	0.0	0Suff NW	4	1434631	instrove	0	1.0	False
1435.731	0.0	0Suff NW	4	1435731	prowert	0	1.0	False
1436.732	0.0	0Suff w/o Lat.	2	1436732	ease	1	0.0	False
1437.815	0.0	2Suff RealStemNW	25	1437815	leadantate	0	1.0	False
1438.824	0.0	0Suff w/o Lat.	2	1438824	provoke	1	0.0	False
1439.857	0.0	2Suff w/o Lat.	22	1439857	sleepily	1	0.0	False
1440.858	0.0	2Suff PseudoStemNW	24	1440858	segnonistic	0	1.0	False
1441.766	0.0	2Suff PseudoStemNW	24	1441766	hodelessly	0	1.0	False
1442.917	0.0	0Suff NW	4	1442917	isotent	0	1.0	False
1444.05	0.0	1Suff PseudoStemNW	14	1444050	concolerable	0	1.0	False
1445.167	0.0	2Suff Composite	23	1445167	sterilization	1	0.0	False
1446.393	0.0	0Suff NW	4	1446393	cunerogy	0	1.0	False
1447.368	0.0	2Suff PseudoStemNW	24	1447368	nerbousness	0	1.0	False
1448.393	0.0	1Suff w/o Lat.	12	1448393	awful	1	0.0	False
1449.644	0.0	0Suff NW	4	1449644	nerbs	0	1.0	False
1450.786	0.0	0Suff w/o Lat.	2	1450786	drama	1	0.0	False
1452.195	0.0	1Suff w/o Lat.	12	1452195	ritualist	1	0.0	False
1453.37	0.0	2Suff w/o Lat.	22	1453370	dramatically	1	0.0	False
1454.445	0.0	0Suff w/o Lat.	2	1454445	aim	1	0.0	False
1455.312	0.0	0Suff w/o Lat.	2	1455312	myth	1	0.0	False
1456.138	0.0	1Suff RealStemNW	15	1456138	furance	0	1.0	False
1457.179	0.0	1Suff w/o Lat.	12	1457179	occasional	1	0.0	False
1458.28	0.0	2Suff w/o Lat.	22	1458280	glorification	1	0.0	False
1459.222	0.0	0Suff NW	4	1459222	devade	0	1.0	False
1460.439	0.0	0Suff NW	4	1460439	distawks	0	1.0	False
1461.447	0.0	1Suff PseudoStemNW	14	1461447	fleepy	0	1.0	False
1462.648	0.0	0Suff NW	4	1462648	figic	0	1.0	False
1463.865	0.0	1Suff w/o Lat.	12	1463865	partial	1	0.0	False
1464.974	0.0	0Suff NW	4	1464974	grame	0	1.0	False
1465.982	0.0	0Suff w/o Lat.	2	1465982	magnet	1	0.0	False
1467.608	0.0	0Suff NW	4	1467608	eltene	0	1.0	False
1468.583	0.0	2Suff w/ Lat.	21	1468583	subjectivity	1	0.0	False
1469.717	0.0	0Suff NW	4	1469717	rame	0	1.0	False
1470.742	0.0	2Suff w/o Lat.	22	1470742	educational	1	0.0	False
1471.959	0.0	2Suff RealStemNW	25	1471959	materialional	0	1.0	False
1473.359	0.0	2Suff Composite	23	1473359	amplification	1	0.0	False
1474.435	0.0	2Suff PseudoStemNW	24	1474435	allidation	0	1.0	False
1475.602	0.0	2Suff w/ Lat.	21	1475602	subjectively	1		False
1478.003	0.0	0Suff NW	4	1478003	concuch	0	1.0	False
1478.995	0.0	0Suff w/o Lat.	2	1478995	compete	1	0.0	False
1479.853	0.0	2Suff PseudoStemNW	24	1479853	chirdishly	0	1.0	False
1480.845	0.0	0Suff w/o Lat.	2	1480845	thick	1	0.0	False
1481.77	0.0	0Suff w/o Lat.	2	1481770	harm	1	0.0	False
1482.837	0.0	2Suff w/ Lat.	21	1482837	exhibitionism	1	0.0	False
1484.213	0.0	0Suff w/o Lat.	2	1484213	thought	1	0.0	False
1485.263	0.0	2Suff w/o Lat.	22	1485263	moisturize	1	0.0	False
1486.297	0.0	1Suff PseudoStemNW	14	1486297	deabonable	0	1.0	False
1487.305	0.0	1Suff RealStemNW	15	1487305	gleeive	0	1.0	False
1488.539	0.0	1Suff w/o Lat.	12	1488539	reasonable	1	0.0	False
1490.89	0.0	0Suff NW	4	1490890	urmer	0	1.0	False
1491.882	0.0	1Suff PseudoStemNW	14	1491882	uteless	0	1.0	False
1492.916	0.0	2Suff Composite	23	1492916	futuristic	1	0.0	False
1494.108	0.0	2Suff w/o Lat.	22	1494108	definitely	1		False
1496.517	0.0	1Suff PseudoStemNW	14	1496517	cunerogial	0	0.0	True
1497.292	0.0	2Suff RealStemNW	25	1497292	immunability	0	0.0	True
1498.259	0.0	1Suff w/o Lat.	12	1498259	speedy	1	0.0	False
1499.159	0.0	2Suff RealStemNW	25	1499159	commutfully	0	1.0	False
1500.234	0.0	1Suff PseudoStemNW	14	1500234	coppentate	0	1.0	False
1501.235	0.0	1Suff PseudoStemNW	14	1501235	priueurant	0	1.0	False
1502.143	0.0	1Suff PseudoStemNW	14	1502143	degorate	0	1.0	False
1503.21	0.0	0Suff NW	4	1503210	mosime	0	1.0	False
1504.094	0.0	2Suff PseudoStemNW	24	1504094	orifadality	0	1.0	False
1504.961	0.0	0Suff NW	4	1504961	pasnet	0	1.0	False
1505.928	0.0	1Suff w/o Lat.	12	1505928	racial	1	0.0	False
1506.961	0.0	0Suff NW	4	1506961	esdybit	0	1.0	False
1507.887	0.0	0Suff w/o Lat.	2	1507887	faith	1	0.0	False
1508.812	0.0	1Suff w/o Lat.	12	1508812	financial	1	0.0	False
1509.837	0.0	2Suff PseudoStemNW	24	1509837	hodelessness	0	1.0	False
1510.954	0.0	2Suff w/o Lat.	22	1510954	essentially	1	0.0	False
1512.03	0.0	2Suff Composite	23	1512030	affectation	1	1.0	True
1514.289	0.0	1Suff PseudoStemNW	14	1514289	prodfessive	0	1.0	False
1515.389	0.0	1Suff w/o Lat.	12	1515389	idealist	1	0.0	False
1516.681	0.0	2Suff RealStemNW	25	1516681	manionist	0	1.0	False
1517.698	0.0	2Suff PseudoStemNW	24	1517698	stumialize	0	1.0	False
1518.932	0.0	2Suff w/o Lat.	22	1518932	deadliness	1	0.0	False
1520.566	0.0	0Suff w/o Lat.	2	1520566	stealth	1	0.0	False
1521.483	0.0	1Suff PseudoStemNW	14	1521483	reration	0	1.0	False
1522.533	0.0	2Suff w/o Lat.	22	1522533	manliness	1	0.0	False
1523.85	0.0	2Suff RealStemNW	25	1523850	painively	0	0.0	True
1525.084	0.0	0Suff NW	4	1525084	eant	0	1.0	False
1526.909	0.0	1Suff w/ Lat.	11	1526909	extensive	1	0.0	False
1527.976	0.0	0Suff NW	4	1527976	hode	0	1.0	False
1529.36	0.0	1Suff w/o Lat.	12	1529360	distinctive	1	0.0	False
1530.394	0.0	0Suff w/ Lat.	1	1530394	extend	1	0.0	False
1531.469	0.0	0Suff NW	4	1531469	manhet	0	1.0	False
1532.444	0.0	0Suff w/o Lat.	2	1532444	race	1	0.0	False
1533.378	0.0	2Suff w/o Lat.	22	1533378	directional	1	0.0	False
1534.428	0.0	0Suff w/ Lat.	1	1534428	mistake	1	0.0	False
1535.295	0.0	1Suff w/o Lat.	12	1535295	addition	1	0.0	False
1536.254	0.0	0Suff NW	4	1536254	rhylph	0	1.0	False
1537.771	0.0	2Suff PseudoStemNW	24	1537771	inshemmation	0	1.0	False
1538.913	0.0	2Suff PseudoStemNW	24	1538913	instrovtional	0	1.0	False
1539.813	0.0	1Suff w/o Lat.	12	1539813	guilty	1	1.0	True
1540.964	0.0	0Suff NW	4	1540964	nole	0	1.0	False
1542.272	0.0	0Suff w/o Lat.	2	1542272	accident	1	0.0	False
1543.198	0.0	2Suff PseudoStemNW	24	1543198	orifadator	0	1.0	False
