onset	duration	trial_type	value	sample	stimulus	is_word	response	correct
31.073	0.0	2Suff RealStemNW	25	31073	manionist	0.0	1.0	False
32.248	0.0	1Suff w/o Lat.	12	32248	ceremonial	1.0	0.0	False
33.49	0.0	2Suff w/o Lat.	22	33490	painlessly	1.0	0.0	False
34.59	0.0	2Suff RealStemNW	25	34590	subjectously	0.0	1.0	False
35.799	0.0	1Suff w/o Lat.	12	35799	architecture	1.0	0.0	False
36.991	0.0	0Suff NW	4	36991	atrie	0.0	1.0	False
38.066	0.0	2Suff w/o Lat.	22	38066	thoughtlessly	1.0	1.0	True
39.375	0.0	2Suff PseudoStemNW	24	39375	utelessness	0.0	1.0	False
41.009	0.0	0Suff w/ Lat.	1	41009	project	1.0	0.0	False
41.918	0.0	2Suff RealStemNW	25	41918	moistantly	0.0	1.0	False
43.076	0.0	2Suff w/o Lat.	22	43076	aimlessly	1.0	0.0	False
44.318	0.0	0Suff NW	4	44318	concoler	0.0	1.0	False
45.302	0.0	0Suff NW	4	45302	provame	0.0	1.0	False
46.461	0.0	1Suff RealStemNW	15	46461	competitful	0.0	1.0	False
47.544	0.0	1Suff PseudoStemNW	14	47544	betiecable	0.0	1.0	False
48.478	0.0	2Suff w/ Lat.	21	48478	impressionism	1.0	1.0	True
49.937	0.0	1Suff RealStemNW	15	49937	childory	0.0	1.0	False
51.154	0.0	2Suff w/ Lat.	21	51154	exhibitionism	1.0	0.0	False
52.338	0.0	0Suff NW	4	52338	nole	0.0	1.0	False
53.321	0.0	1Suff PseudoStemNW	14	53321	thacken	0.0	1.0	False
54.288	0.0	2Suff RealStemNW	25	54288	glorliness	0.0	1.0	False
55.28	0.0	1Suff RealStemNW	15	55280	hopeable	0.0	1.0	False
56.622	0.0	1Suff PseudoStemNW	14	56622	prodfessive	0.0	1.0	False
57.631	0.0	2Suff w/o Lat.	22	57631	wakefulness	1.0	0.0	False
58.89	0.0	1Suff w/o Lat.	12	58890	editor	1.0	0.0	False
60.098	0.0	2Suff PseudoStemNW	24	60098	restittably	0.0	1.0	False
61.115	0.0	0Suff NW	4	61115	hode	0.0	1.0	False
62.174	0.0	1Suff PseudoStemNW	14	62174	ramial	0.0	1.0	False
63.183	0.0	0Suff w/o Lat.	2	63183	myth	1.0	0.0	False
64.275	0.0	0Suff w/o Lat.	2	64275	define	1.0	0.0	False
65.3	0.0	1Suff w/o Lat.	12	65300	agreeable	1.0	0.0	False
66.242	0.0	2Suff PseudoStemNW	24	66242	stumiality	0.0	1.0	False
67.4	0.0	2Suff PseudoStemNW	24	67400	deterfuristic	0.0	1.0	False
68.559	0.0	0Suff w/o Lat.	2	68559	provoke	1.0	0.0	False
69.793	0.0	0Suff w/ Lat.	1	69793	instruct	1.0	0.0	False
71.077	0.0	2Suff PseudoStemNW	24	71077	priueurantly	0.0	1.0	False
72.119	0.0	1Suff w/o Lat.	12	72119	furious	1.0	0.0	False
73.152	0.0	2Suff Composite	23	73152	mechanistic	1.0	1.0	True
74.611	0.0	2Suff PseudoStemNW	24	74611	segnonistic	0.0	1.0	False
75.795	0.0	2Suff RealStemNW	25	75795	immunability	0.0	1.0	False
77.187	0.0	2Suff PseudoStemNW	24	77187	eltensively	0.0	1.0	False
78.521	0.0	0Suff NW	4	78521	cossete	0.0	1.0	False
79.463	0.0	1Suff w/o Lat.	12	79463	confession	1.0	0.0	False
80.58	0.0	1Suff PseudoStemNW	14	80580	chotintical	0.0	1.0	False
81.647	0.0	2Suff w/o Lat.	22	81647	transitional	1.0	0.0	False
82.73	0.0	0Suff w/o Lat.	2	82730	friend	1.0	0.0	False
83.781	0.0	0Suff w/o Lat.	2	83781	finance	1.0	0.0	False
84.864	0.0	0Suff NW	4	84864	concuch	0.0	1.0	False
86.123	0.0	1Suff RealStemNW	15	86123	successate	0.0	1.0	False
87.39	0.0	2Suff Composite	23	87390	pasteurization	1.0	1.0	True
88.465	0.0	2Suff PseudoStemNW	24	88465	paftiality	0.0	1.0	False
90.032	0.0	2Suff RealStemNW	25	90032	restiousness	0.0	1.0	False
91.083	0.0	2Suff w/ Lat.	21	91083	instructional	1.0	0.0	False
92.15	0.0	0Suff NW	4	92150	manfin	0.0	1.0	False
93.183	0.0	2Suff RealStemNW	25	93183	transitality	0.0	1.0	False
94.642	0.0	1Suff w/o Lat.	12	94642	forgetful	1.0	0.0	False
95.809	0.0	0Suff NW	4	95809	snight	0.0	1.0	False
96.801	0.0	0Suff w/ Lat.	1	96801	subject	1.0	0.0	False
97.726	0.0	0Suff NW	4	97726	pead	0.0	1.0	False
98.627	0.0	2Suff w/o Lat.	22	98627	considerately	1.0	0.0	False
100.111	0.0	2Suff w/o Lat.	22	100111	isolationist	1.0	1.0	True
101.186	0.0	1Suff RealStemNW	15	101186	periodal	0.0	1.0	False
102.286	0.0	0Suff NW	4	102286	pasnet	0.0	1.0	False
103.253	0.0	2Suff PseudoStemNW	24	103253	instrovtional	0.0	1.0	False
104.22	0.0	2Suff PseudoStemNW	24	104220	prebitably	0.0	1.0	False
105.296	0.0	2Suff w/o Lat.	22	105296	decisively	1.0	0.0	False
106.529	0.0	2Suff PseudoStemNW	24	106529	falality	0.0	1.0	False
107.696	0.0	2Suff w/o Lat.	22	107696	directorship	1.0	1.0	True
109.005	0.0	2Suff RealStemNW	25	109005	seasonical	0.0	1.0	False
110.564	0.0	1Suff w/o Lat.	12	110564	realist	1.0	0.0	False
112.081	0.0	1Suff w/ Lat.	11	112081	exhibition	1.0	0.0	False
113.265	0.0	2Suff w/o Lat.	22	113265	globally	1.0	0.0	False
114.357	0.0	1Suff w/o Lat.	12	114357	deadly	1.0	0.0	False
115.424	0.0	2Suff w/o Lat.	22	115424	relativism	1.0	0.0	False
116.657	0.0	0Suff NW	4	116657	imoat	0.0	1.0	False
117.899	0.0	2Suff w/o Lat.	22	117899	agreeably	1.0	0.0	False
118.9	0.0	1Suff w/o Lat.	12	118900	triumphant	1.0	0.0	False
120.358	0.0	1Suff PseudoStemNW	14	120358	steadthy	0.0	1.0	False
121.634	0.0	1Suff RealStemNW	15	121634	confessate	0.0	1.0	False
122.818	0.0	0Suff w/o Lat.	2	122818	use	1.0	0.0	False
123.901	0.0	2Suff w/o Lat.	22	123901	racially	1.0	0.0	False
125.152	0.0	1Suff w/o Lat.	12	125152	wakeful	1.0	0.0	False
126.885	0.0	1Suff w/o Lat.	12	126885	transition	1.0	0.0	False
128.153	0.0	2Suff RealStemNW	25	128153	orderionist	0.0	1.0	False
129.42	0.0	1Suff RealStemNW	15	129420	heroal	0.0	1.0	False
130.403	0.0	1Suff w/ Lat.	11	130403	conceptual	1.0	0.0	False
131.512	0.0	2Suff RealStemNW	25	131512	fatalize	0.0	1.0	False
132.487	0.0	2Suff RealStemNW	25	132487	painively	0.0	1.0	False
133.504	0.0	0Suff NW	4	133504	esdybit	0.0	1.0	False
134.413	0.0	1Suff w/o Lat.	12	134413	designate	1.0	1.0	True
135.697	0.0	1Suff RealStemNW	15	135697	provocatful	0.0	1.0	False
137.364	0.0	2Suff w/ Lat.	21	137364	affectionate	1.0	0.0	False
138.589	0.0	2Suff RealStemNW	25	138589	substanceical	0.0	1.0	False
140.815	0.0	0Suff w/o Lat.	2	140815	reason	1.0	0.0	False
141.923	0.0	2Suff RealStemNW	25	141923	marginical	0.0	1.0	False
143.499	0.0	2Suff PseudoStemNW	24	143499	fleedily	0.0	1.0	False
144.574	0.0	2Suff w/o Lat.	22	144574	relationship	1.0	0.0	False
146.175	0.0	2Suff PseudoStemNW	24	146175	pafleurization	0.0	1.0	False
147.267	0.0	2Suff w/o Lat.	22	147267	fatalism	1.0	1.0	True
148.934	0.0	1Suff w/o Lat.	12	148934	leader	1.0	0.0	False
149.993	0.0	2Suff w/o Lat.	22	149993	painfully	1.0	0.0	False
151.243	0.0	2Suff PseudoStemNW	24	151243	ewsibally	0.0	1.0	False
152.277	0.0	2Suff PseudoStemNW	24	152277	gramiously	0.0	1.0	False
153.269	0.0	1Suff w/ Lat.	11	153269	progressive	1.0	0.0	False
154.452	0.0	1Suff RealStemNW	15	154452	designion	0.0	1.0	False
155.944	0.0	0Suff w/o Lat.	2	155944	add	1.0	1.0	True
156.828	0.0	1Suff w/o Lat.	12	156828	awful	1.0	0.0	False
158.178	0.0	0Suff NW	4	158178	ais	0.0	1.0	False
159.212	0.0	2Suff PseudoStemNW	24	159212	snightfully	0.0	1.0	False
160.379	0.0	2Suff RealStemNW	25	160379	decorural	0.0	1.0	False
161.438	0.0	1Suff RealStemNW	15	161438	persuasful	0.0	1.0	False
162.571	0.0	2Suff RealStemNW	25	162571	aimiously	0.0	1.0	False
163.638	0.0	0Suff NW	4	163638	moel	0.0	1.0	False
164.697	0.0	1Suff w/o Lat.	12	164697	worthless	1.0	0.0	False
166.323	0.0	1Suff RealStemNW	15	166323	differify	0.0	1.0	False
167.415	0.0	2Suff Composite	23	167415	commutation	1.0	1.0	True
169.632	0.0	1Suff PseudoStemNW	14	169632	vimidate	0.0	1.0	False
170.891	0.0	2Suff RealStemNW	25	170891	impressliness	0.0	1.0	False
172.241	0.0	0Suff NW	4	172241	stitile	0.0	1.0	False
176.859	0.0	0Suff NW	4	176859	affall	0.0	1.0	False
177.893	0.0	2Suff PseudoStemNW	24	177893	banically	0.0	1.0	False
179.76	0.0	2Suff w/o Lat.	22	179760	educational	1.0	0.0	False
181.019	0.0	2Suff RealStemNW	25	181019	decisfully	0.0	1.0	False
182.403	0.0	2Suff w/o Lat.	22	182403	childishness	1.0	0.0	False
184.086	0.0	1Suff RealStemNW	15	184086	agreeless	0.0	1.0	False
185.57	0.0	1Suff RealStemNW	15	185570	gleeive	0.0	1.0	False
186.587	0.0	0Suff NW	4	186587	uspasion	0.0	1.0	False
187.537	0.0	1Suff RealStemNW	15	187537	instructate	0.0	1.0	False
188.788	0.0	1Suff PseudoStemNW	14	188788	paftial	0.0	1.0	False
190.438	0.0	0Suff NW	4	190438	diruce	0.0	1.0	False
191.397	0.0	2Suff PseudoStemNW	24	191397	urhanization	0.0	1.0	False
192.572	0.0	2Suff PseudoStemNW	24	192572	detismsfully	0.0	1.0	False
193.881	0.0	1Suff PseudoStemNW	14	193881	cunerogial	0.0	1.0	False
194.973	0.0	2Suff PseudoStemNW	24	194973	imoatization	0.0	1.0	False
196.057	0.0	1Suff w/o Lat.	12	196057	useful	1.0	0.0	False
197.24	0.0	2Suff w/o Lat.	22	197240	childishly	1.0	0.0	False
199.066	0.0	1Suff PseudoStemNW	14	199066	nolable	0.0	1.0	False
200.333	0.0	2Suff RealStemNW	25	200333	agreeally	0.0	0.0	True
201.3	0.0	2Suff PseudoStemNW	24	201300	thackener	0.0	1.0	False
202.984	0.0	1Suff PseudoStemNW	14	202984	restittable	0.0	1.0	False
204.251	0.0	2Suff PseudoStemNW	24	204251	figically	0.0	1.0	False
205.551	0.0	0Suff NW	4	205551	appigent	0.0	1.0	False
206.685	0.0	0Suff w/o Lat.	2	206685	compete	1.0	0.0	False
207.935	0.0	2Suff w/o Lat.	22	207935	familiarize	1.0	0.0	False
209.077	0.0	1Suff PseudoStemNW	14	209077	falumful	0.0	1.0	False
210.278	0.0	2Suff w/o Lat.	22	210278	confessional	1.0	0.0	False
212.078	0.0	2Suff PseudoStemNW	24	212078	rerativity	0.0	1.0	False
213.329	0.0	2Suff PseudoStemNW	24	213329	sorkener	0.0	1.0	False
214.371	0.0	2Suff PseudoStemNW	24	214371	chierfully	0.0	1.0	False
215.471	0.0	2Suff Composite	23	215471	corporation	1.0	0.0	False
216.58	0.0	1Suff RealStemNW	15	216580	peaceive	0.0	1.0	False
217.913	0.0	2Suff PseudoStemNW	24	217913	rhylphically	0.0	1.0	False
219.081	0.0	0Suff NW	4	219081	chird	0.0	1.0	False
220.323	0.0	2Suff RealStemNW	25	220323	cheerability	0.0	1.0	False
221.448	0.0	1Suff PseudoStemNW	14	221448	fralatic	0.0	1.0	False
223.265	0.0	2Suff PseudoStemNW	24	223265	carbisalistic	0.0	1.0	False
224.499	0.0	1Suff PseudoStemNW	14	224499	fleepy	0.0	1.0	False
225.641	0.0	2Suff w/o Lat.	22	225641	successfully	1.0	0.0	False
226.574	0.0	0Suff w/ Lat.	1	226574	persist	1.0	1.0	True
227.566	0.0	0Suff NW	4	227566	pask	0.0	1.0	False
228.675	0.0	2Suff Composite	23	228675	dramatization	1.0	0.0	False
229.884	0.0	0Suff w/o Lat.	2	229884	thought	1.0	0.0	False
231.359	0.0	0Suff NW	4	231359	itcress	0.0	1.0	False
232.86	0.0	0Suff w/ Lat.	1	232860	progress	1.0	0.0	False
233.918	0.0	1Suff w/o Lat.	12	233918	difference	1.0	0.0	False
235.461	0.0	1Suff RealStemNW	15	235461	immunist	0.0	1.0	False
236.853	0.0	2Suff w/ Lat.	21	236853	conceptualize	1.0	0.0	False
238.095	0.0	0Suff w/o Lat.	2	238095	educate	1.0	0.0	False
239.153	0.0	1Suff w/o Lat.	12	239153	dramatize	1.0	0.0	False
240.154	0.0	0Suff w/o Lat.	2	240154	base	1.0	0.0	False
241.129	0.0	0Suff NW	4	241129	fleed	0.0	0.0	True
243.055	0.0	2Suff w/o Lat.	22	243055	mobilization	1.0	0.0	False
244.822	0.0	0Suff w/o Lat.	2	244822	race	1.0	0.0	False
245.864	0.0	0Suff NW	4	245864	fars	0.0	1.0	False
247.097	0.0	0Suff w/o Lat.	2	247097	sleep	1.0	0.0	False
248.031	0.0	2Suff w/o Lat.	22	248031	differential	1.0	0.0	False
249.682	0.0	2Suff w/o Lat.	22	249682	designation	1.0	0.0	False
251.432	0.0	2Suff RealStemNW	25	251432	leadantate	0.0	1.0	False
252.491	0.0	2Suff w/o Lat.	22	252491	sleepily	1.0	0.0	False
253.633	0.0	2Suff PseudoStemNW	24	253633	comlomation	0.0	1.0	False
254.808	0.0	2Suff RealStemNW	25	254808	ailistic	0.0	1.0	False
255.917	0.0	2Suff RealStemNW	25	255917	harmiously	0.0	0.0	True
257.142	0.0	2Suff w/o Lat.	22	257142	differently	1.0	0.0	False
258.459	0.0	0Suff w/ Lat.	1	258459	mistake	1.0	0.0	False
259.526	0.0	2Suff w/o Lat.	22	259526	definitive	1.0	0.0	False
260.552	0.0	1Suff PseudoStemNW	14	260552	lenctional	0.0	1.0	False
261.619	0.0	0Suff NW	4	261619	fleep	0.0	1.0	False
262.611	0.0	2Suff w/o Lat.	22	262611	guardianship	1.0	1.0	True
263.553	0.0	2Suff w/o Lat.	22	263553	triviality	1.0	0.0	False
264.853	0.0	1Suff PseudoStemNW	14	264853	grameful	0.0	1.0	False
266.645	0.0	2Suff w/o Lat.	22	266645	trivialize	1.0	0.0	False
267.829	0.0	2Suff PseudoStemNW	24	267829	awditional	0.0	1.0	False
268.888	0.0	1Suff w/o Lat.	12	268888	musical	1.0	0.0	False
270.113	0.0	1Suff PseudoStemNW	14	270113	awdition	0.0	1.0	False
271.222	0.0	1Suff RealStemNW	15	271222	marginic	0.0	1.0	False
272.43	0.0	2Suff w/o Lat.	22	272430	periodical	1.0	0.0	False
273.589	0.0	0Suff w/o Lat.	2	273589	relate	1.0	0.0	False
274.681	0.0	0Suff w/o Lat.	2	274681	architect	1.0	0.0	False
275.69	0.0	1Suff w/o Lat.	12	275690	graceful	1.0	0.0	False
276.907	0.0	2Suff w/ Lat.	21	276907	progressively	1.0	0.0	False
277.957	0.0	1Suff PseudoStemNW	14	277957	ewsibal	0.0	1.0	False
279.016	0.0	2Suff w/o Lat.	22	279016	leadership	1.0	0.0	False
280.033	0.0	1Suff w/o Lat.	12	280033	restless	1.0	0.0	False
281.133	0.0	0Suff NW	4	281133	miccess	0.0	1.0	False
282.15	0.0	2Suff w/o Lat.	22	282150	awfully	1.0	0.0	False
283.25	0.0	0Suff NW	4	283250	manhet	0.0	1.0	False
284.376	0.0	1Suff w/o Lat.	12	284376	trivial	1.0	0.0	False
285.401	0.0	0Suff NW	4	285401	mevion	0.0	1.0	False
286.568	0.0	2Suff RealStemNW	25	286568	predictator	0.0	1.0	False
288.494	0.0	0Suff w/o Lat.	2	288494	consider	1.0	0.0	False
289.644	0.0	0Suff NW	4	289644	pipsist	0.0	1.0	False
290.828	0.0	2Suff PseudoStemNW	24	290828	cossetitively	0.0	1.0	False
292.236	0.0	0Suff w/o Lat.	2	292236	glory	1.0	0.0	False
293.753	0.0	1Suff w/o Lat.	12	293753	reasonable	1.0	0.0	False
294.82	0.0	0Suff w/o Lat.	2	294820	fright	1.0	0.0	False
296.004	0.0	0Suff w/ Lat.	1	296004	predict	1.0	0.0	False
297.28	0.0	2Suff PseudoStemNW	24	297280	uspasionally	0.0	1.0	False
298.497	0.0	1Suff w/o Lat.	12	298497	soften	1.0	0.0	False
299.63	0.0	1Suff w/o Lat.	12	299630	hopeless	1.0	0.0	False
300.706	0.0	2Suff w/o Lat.	22	300706	commentator	1.0	0.0	False
301.789	0.0	0Suff w/o Lat.	2	301789	regret	1.0	0.0	False
302.823	0.0	2Suff RealStemNW	25	302823	fasticly	0.0	1.0	False
303.973	0.0	0Suff NW	4	303973	betiece	0.0	1.0	False
305.074	0.0	1Suff PseudoStemNW	14	305074	subplencial	0.0	1.0	False
306.116	0.0	2Suff w/o Lat.	22	306116	essentially	1.0	0.0	False
307.291	0.0	1Suff w/o Lat.	12	307291	faithful	1.0	0.0	False
308.366	0.0	1Suff PseudoStemNW	14	308366	concolerable	0.0	1.0	False
309.525	0.0	1Suff RealStemNW	15	309525	realify	0.0	1.0	False
310.884	0.0	1Suff PseudoStemNW	14	310884	sorken	0.0	1.0	False
311.809	0.0	0Suff NW	4	311809	preguct	0.0	1.0	False
312.734	0.0	0Suff w/o Lat.	2	312734	lead	1.0	0.0	False
313.76	0.0	0Suff NW	4	313760	paft	0.0	1.0	False
315.01	0.0	1Suff w/o Lat.	12	315010	ethical	1.0	0.0	False
316.194	0.0	1Suff w/o Lat.	12	316194	glorious	1.0	0.0	False
317.703	0.0	0Suff w/o Lat.	2	317703	margin	1.0	0.0	False
318.928	0.0	1Suff w/o Lat.	12	318928	friendly	1.0	0.0	False
320.037	0.0	0Suff w/o Lat.	2	320037	pain	1.0	0.0	False
321.062	0.0	2Suff w/o Lat.	22	321062	hopelessly	1.0	0.0	False
370.66	0.0	1Suff PseudoStemNW	14	370660	arful	0.0	1.0	False
372.111	0.0	2Suff RealStemNW	25	372111	educatality	0.0	1.0	False
373.545	0.0	0Suff NW	4	373545	artlitack	0.0	1.0	False
374.587	0.0	0Suff w/o Lat.	2	374587	forget	1.0	0.0	False
375.629	0.0	0Suff w/o Lat.	2	375629	adapt	1.0	0.0	False
376.596	0.0	2Suff RealStemNW	25	376596	executarity	0.0	1.0	False
377.604	0.0	2Suff w/o Lat.	22	377604	competitively	1.0	0.0	False
379.005	0.0	1Suff w/o Lat.	12	379005	definite	1.0	0.0	False
380.047	0.0	2Suff w/o Lat.	22	380047	logically	1.0	0.0	False
381.022	0.0	2Suff PseudoStemNW	24	381022	perburbation	0.0	1.0	False
382.056	0.0	1Suff w/o Lat.	12	382056	assassinate	1.0	1.0	True
383.081	0.0	0Suff NW	4	383081	wate	0.0	1.0	False
384.173	0.0	0Suff w/o Lat.	2	384173	music	1.0	0.0	False
385.048	0.0	0Suff NW	4	385048	essoils	0.0	1.0	False
386.074	0.0	1Suff RealStemNW	15	386074	deadic	0.0	1.0	False
387.282	0.0	1Suff w/o Lat.	12	387282	successful	1.0	0.0	False
388.291	0.0	2Suff PseudoStemNW	24	388291	hythically	0.0	1.0	False
389.441	0.0	0Suff w/o Lat.	2	389441	valid	1.0	0.0	False
390.433	0.0	2Suff w/o Lat.	22	390433	editorship	1.0	1.0	True
391.667	0.0	1Suff w/ Lat.	11	391667	projection	1.0	0.0	False
392.742	0.0	1Suff w/o Lat.	12	392742	education	1.0	0.0	False
393.718	0.0	2Suff w/o Lat.	22	393718	accidentally	1.0	0.0	False
394.96	0.0	2Suff PseudoStemNW	24	394960	deabonably	0.0	1.0	False
396.127	0.0	1Suff w/o Lat.	12	396127	decisive	1.0	0.0	False
397.169	0.0	0Suff NW	4	397169	worch	0.0	1.0	False
398.194	0.0	1Suff w/o Lat.	12	398194	frightful	1.0	0.0	False
399.361	0.0	2Suff RealStemNW	25	399361	accidentical	0.0	1.0	False
400.895	0.0	0Suff w/o Lat.	2	400895	stealth	1.0	0.0	False
402.062	0.0	2Suff w/o Lat.	22	402062	rhythmically	1.0	0.0	False
403.221	0.0	2Suff Composite	23	403221	confederation	1.0	1.0	True
404.338	0.0	1Suff w/o Lat.	12	404338	poetic	1.0	0.0	False
405.421	0.0	0Suff NW	4	405421	nerbs	0.0	1.0	False
406.447	0.0	1Suff PseudoStemNW	14	406447	devadive	0.0	1.0	False
407.53	0.0	2Suff PseudoStemNW	24	407530	utefully	0.0	1.0	False
408.647	0.0	2Suff RealStemNW	25	408647	raceical	0.0	1.0	False
409.981	0.0	0Suff NW	4	409981	vimid	0.0	1.0	False
411.223	0.0	2Suff RealStemNW	25	411223	revitalilessly	0.0	1.0	False
412.407	0.0	1Suff RealStemNW	15	412407	restable	0.0	1.0	False
413.474	0.0	2Suff Composite	23	413474	biblical	1.0	0.0	False
414.607	0.0	2Suff w/o Lat.	22	414607	glorification	1.0	0.0	False
415.816	0.0	0Suff w/o Lat.	2	415816	glee	1.0	0.0	False
416.991	0.0	1Suff PseudoStemNW	14	416991	affaidative	0.0	1.0	False
418.258	0.0	1Suff RealStemNW	15	418258	directar	0.0	1.0	False
419.726	0.0	2Suff RealStemNW	25	419726	peaceively	0.0	1.0	False
421.018	0.0	2Suff w/ Lat.	21	421018	subjectivity	1.0	0.0	False
422.385	0.0	0Suff w/o Lat.	2	422385	logic	1.0	0.0	False
423.46	0.0	1Suff PseudoStemNW	14	423460	snightful	0.0	1.0	False
424.569	0.0	0Suff w/ Lat.	1	424569	impress	1.0	0.0	False
425.769	0.0	1Suff PseudoStemNW	14	425769	fleedy	0.0	1.0	False
427.07	0.0	2Suff w/o Lat.	22	427070	soulfully	1.0	0.0	False
428.553	0.0	2Suff w/o Lat.	22	428553	assassination	1.0	0.0	False
429.645	0.0	1Suff RealStemNW	15	429645	leador	0.0	0.0	True
430.679	0.0	1Suff w/o Lat.	12	430679	considerable	1.0	0.0	False
432.054	0.0	2Suff RealStemNW	25	432054	subjectfully	0.0	0.0	True
433.672	0.0	2Suff Composite	23	433672	futuristic	1.0	0.0	False
435.014	0.0	2Suff w/o Lat.	22	435014	marginally	1.0	0.0	False
436.139	0.0	0Suff w/o Lat.	2	436139	persuade	1.0	0.0	False
437.173	0.0	1Suff RealStemNW	15	437173	marketless	0.0	1.0	False
439.048	0.0	0Suff w/ Lat.	1	439048	exhibit	1.0	0.0	False
440.149	0.0	0Suff w/o Lat.	2	440149	magnet	1.0	0.0	False
441.166	0.0	0Suff w/o Lat.	2	441166	intense	1.0	0.0	False
442.283	0.0	2Suff RealStemNW	25	442283	globical	0.0	0.0	True
443.216	0.0	0Suff w/o Lat.	2	443216	dead	1.0	0.0	False
444.3	0.0	2Suff w/o Lat.	22	444300	polarize	1.0	0.0	False
445.467	0.0	2Suff w/o Lat.	22	445467	ritualistic	1.0	0.0	False
446.917	0.0	0Suff w/o Lat.	2	446917	success	1.0	0.0	False
447.826	0.0	1Suff PseudoStemNW	14	447826	orifadate	0.0	1.0	False
448.843	0.0	0Suff NW	4	448843	pavediad	0.0	1.0	False
449.802	0.0	0Suff NW	4	449802	pote	0.0	1.0	False
450.76	0.0	1Suff w/o Lat.	12	450760	commentate	1.0	1.0	True
452.444	0.0	0Suff w/o Lat.	2	452444	order	1.0	0.0	False
453.569	0.0	2Suff w/o Lat.	22	453569	manliness	1.0	0.0	False
454.903	0.0	2Suff RealStemNW	25	454903	sleepery	0.0	1.0	False
456.287	0.0	1Suff w/o Lat.	12	456287	thankful	1.0	0.0	False
457.529	0.0	2Suff RealStemNW	25	457529	affectorship	0.0	1.0	False
458.796	0.0	2Suff w/o Lat.	22	458796	marketability	1.0	1.0	True
459.938	0.0	1Suff w/o Lat.	12	459938	gracious	1.0	0.0	False
461.097	0.0	0Suff w/o Lat.	2	461097	exhaust	1.0	0.0	False
462.172	0.0	0Suff NW	4	462172	lenction	0.0	1.0	False
463.131	0.0	1Suff PseudoStemNW	14	463131	chierful	0.0	1.0	False
464.098	0.0	1Suff PseudoStemNW	14	464098	eetward	0.0	1.0	False
464.973	0.0	0Suff w/o Lat.	2	464973	season	1.0	0.0	False
465.973	0.0	2Suff w/o Lat.	22	465973	fatality	1.0	0.0	False
467.149	0.0	0Suff w/o Lat.	2	467149	faith	1.0	0.0	False
468.149	0.0	1Suff w/o Lat.	12	468149	guardian	1.0	0.0	False
469.041	0.0	2Suff Composite	23	469041	satirical	1.0	0.0	False
470.283	0.0	0Suff w/o Lat.	2	470283	origin	1.0	0.0	False
471.25	0.0	2Suff w/o Lat.	22	471250	faithfully	1.0	0.0	False
472.133	0.0	0Suff w/o Lat.	2	472133	family	1.0	0.0	False
472.967	0.0	2Suff w/o Lat.	22	472967	functionally	1.0	0.0	False
473.851	0.0	1Suff PseudoStemNW	14	473851	preguctable	0.0	1.0	False
475.309	0.0	0Suff NW	4	475309	halk	0.0	1.0	False
476.326	0.0	2Suff RealStemNW	25	476326	exhaustfully	0.0	0.0	True
477.677	0.0	2Suff w/o Lat.	22	477677	hopefully	1.0	0.0	False
478.785	0.0	2Suff RealStemNW	25	478785	soulively	0.0	1.0	False
479.802	0.0	1Suff PseudoStemNW	14	479802	gulbsian	0.0	1.0	False
480.703	0.0	1Suff w/o Lat.	12	480703	idealize	1.0	0.0	False
481.703	0.0	1Suff w/o Lat.	12	481703	childish	1.0	0.0	False
482.612	0.0	1Suff RealStemNW	15	482612	familior	0.0	1.0	False
483.704	0.0	0Suff w/o Lat.	2	483704	statistic	1.0	1.0	True
484.854	0.0	2Suff w/o Lat.	22	484854	gracefully	1.0	0.0	False
485.896	0.0	0Suff w/o Lat.	2	485896	execute	1.0	0.0	False
487.188	0.0	2Suff w/o Lat.	22	487188	originality	1.0	0.0	False
488.23	0.0	2Suff RealStemNW	25	488230	relateness	0.0	0.0	True
489.53	0.0	0Suff w/o Lat.	2	489530	part	1.0	0.0	False
490.906	0.0	0Suff w/o Lat.	2	490906	awe	1.0	0.0	False
492.106	0.0	2Suff PseudoStemNW	24	492106	orifadally	0.0	1.0	False
493.565	0.0	1Suff w/ Lat.	11	493565	extensive	1.0	0.0	False
494.79	0.0	1Suff RealStemNW	15	494790	sterilist	0.0	1.0	False
496.824	0.0	2Suff RealStemNW	25	496824	notural	0.0	1.0	False
497.891	0.0	2Suff PseudoStemNW	24	497891	chotintically	0.0	1.0	False
499.008	0.0	0Suff NW	4	499008	subplence	0.0	1.0	False
499.967	0.0	1Suff w/o Lat.	12	499967	relative	1.0	0.0	False
501.009	0.0	1Suff PseudoStemNW	14	501009	goulty	0.0	1.0	False
502.001	0.0	2Suff PseudoStemNW	24	502001	stitilization	0.0	1.0	False
503.493	0.0	2Suff PseudoStemNW	24	503493	pasnetically	0.0	1.0	False
504.952	0.0	2Suff w/o Lat.	22	504952	adaptability	1.0	0.0	False
506.027	0.0	2Suff PseudoStemNW	24	506027	pafferential	0.0	1.0	False
507.144	0.0	2Suff w/o Lat.	22	507144	familiarity	1.0	0.0	False
526.9	0.0	2Suff PseudoStemNW	24	526900	watefulness	0.0	1.0	False
528.634	0.0	2Suff w/o Lat.	22	528634	decorative	1.0	1.0	True
529.526	0.0	2Suff w/o Lat.	22	529526	occasionally	1.0	0.0	False
530.551	0.0	0Suff NW	4	530551	chotintic	0.0	1.0	False
531.527	0.0	0Suff NW	4	531527	musual	0.0	1.0	False
532.66	0.0	0Suff NW	4	532660	sushect	0.0	1.0	False
533.736	0.0	1Suff w/o Lat.	12	533736	cheerful	1.0	0.0	False
534.778	0.0	2Suff RealStemNW	25	534778	isolatmental	0.0	1.0	False
536.328	0.0	0Suff w/o Lat.	2	536328	mobile	1.0	0.0	False
537.37	0.0	2Suff w/o Lat.	22	537370	believably	1.0	0.0	False
538.445	0.0	0Suff NW	4	538445	steadth	0.0	1.0	False
539.612	0.0	2Suff w/o Lat.	22	539612	friendliness	1.0	0.0	False
540.713	0.0	1Suff w/o Lat.	12	540713	racial	1.0	0.0	False
541.805	0.0	1Suff w/o Lat.	12	541805	persuasive	1.0	0.0	False
542.863	0.0	2Suff w/o Lat.	22	542863	originally	1.0	0.0	False
543.847	0.0	0Suff w/o Lat.	2	543847	nerve	1.0	0.0	False
544.939	0.0	2Suff PseudoStemNW	24	544939	falumfilly	0.0	1.0	False
545.973	0.0	1Suff w/o Lat.	12	545973	originate	1.0	0.0	False
546.965	0.0	1Suff PseudoStemNW	14	546965	thashful	0.0	1.0	False
547.99	0.0	1Suff w/o Lat.	12	547990	occasional	1.0	0.0	False
548.94	0.0	0Suff NW	4	548940	eant	0.0	1.0	False
549.949	0.0	1Suff w/o Lat.	12	549949	regrettable	1.0	0.0	False
550.949	0.0	1Suff w/o Lat.	12	550949	substantial	1.0	0.0	False
552.083	0.0	2Suff RealStemNW	25	552083	conceptuical	0.0	1.0	False
553.667	0.0	1Suff w/o Lat.	12	553667	protection	1.0	0.0	False
554.7	0.0	1Suff PseudoStemNW	14	554700	uspasional	0.0	1.0	False
555.701	0.0	2Suff w/o Lat.	22	555701	graciously	1.0	0.0	False
556.726	0.0	2Suff Composite	23	556726	militarization	1.0	1.0	True
558.335	0.0	2Suff w/o Lat.	22	558335	relational	1.0	0.0	False
559.61	0.0	1Suff PseudoStemNW	14	559610	orifadal	0.0	1.0	False
560.577	0.0	1Suff w/o Lat.	12	560577	original	1.0	0.0	False
561.519	0.0	2Suff PseudoStemNW	24	561519	mistilenly	0.0	1.0	False
562.536	0.0	1Suff RealStemNW	15	562536	exhaustful	0.0	0.0	True
563.595	0.0	2Suff PseudoStemNW	24	563595	inshemmation	0.0	1.0	False
564.762	0.0	1Suff w/o Lat.	12	564762	thoughtless	1.0	0.0	False
566.079	0.0	2Suff RealStemNW	25	566079	isolatliness	0.0	1.0	False
567.346	0.0	1Suff w/o Lat.	12	567346	fatal	1.0	0.0	False
568.288	0.0	2Suff w/o Lat.	22	568288	fatally	1.0	0.0	False
569.247	0.0	1Suff w/o Lat.	12	569247	relation	1.0	0.0	False
570.205	0.0	1Suff w/o Lat.	12	570205	periodic	1.0	0.0	False
571.139	0.0	1Suff RealStemNW	15	571139	extensful	0.0	0.0	True
572.022	0.0	2Suff PseudoStemNW	24	572022	pinonical	0.0	1.0	False
573.181	0.0	0Suff w/o Lat.	2	573181	ceremony	1.0	0.0	False
574.273	0.0	2Suff w/ Lat.	21	574273	affirmatively	1.0	0.0	False
575.715	0.0	2Suff w/o Lat.	22	575715	notification	1.0	0.0	False
576.807	0.0	2Suff w/o Lat.	22	576807	intensively	1.0	0.0	False
577.866	0.0	0Suff NW	4	577866	peece	0.0	1.0	False
578.858	0.0	0Suff w/o Lat.	2	578858	time	1.0	0.0	False
579.716	0.0	0Suff NW	4	579716	desalk	0.0	1.0	False
580.725	0.0	2Suff w/o Lat.	22	580725	triumphantly	1.0	0.0	False
581.734	0.0	0Suff w/o Lat.	2	581734	differ	1.0	0.0	False
582.726	0.0	2Suff RealStemNW	25	582726	idealional	0.0	1.0	False
584.176	0.0	0Suff w/o Lat.	2	584176	ethic	1.0	0.0	False
585.285	0.0	1Suff w/o Lat.	12	585285	marketable	1.0	0.0	False
586.385	0.0	1Suff RealStemNW	15	586385	magnetal	0.0	1.0	False
587.569	0.0	1Suff w/o Lat.	12	587569	different	1.0	0.0	False
588.703	0.0	2Suff RealStemNW	25	588703	guiltioner	0.0	1.0	False
589.803	0.0	0Suff w/o Lat.	2	589803	aim	1.0	0.0	False
590.795	0.0	0Suff w/o Lat.	2	590795	rhythm	1.0	0.0	False
592.02	0.0	2Suff PseudoStemNW	24	592020	peadership	0.0	1.0	False
593.329	0.0	2Suff PseudoStemNW	24	593329	stoteldionist	0.0	1.0	False
594.421	0.0	2Suff RealStemNW	25	594421	categorally	0.0	1.0	False
595.446	0.0	2Suff PseudoStemNW	24	595446	affallation	0.0	1.0	False
596.638	0.0	2Suff RealStemNW	25	596638	poetally	0.0	1.0	False
597.872	0.0	2Suff RealStemNW	25	597872	fatical	0.0	1.0	False
598.989	0.0	2Suff w/o Lat.	22	598989	governmental	1.0	0.0	False
600.114	0.0	1Suff w/o Lat.	12	600114	hopeful	1.0	0.0	False
601.081	0.0	2Suff w/o Lat.	22	601081	peacefully	1.0	0.0	False
602.098	0.0	1Suff w/o Lat.	12	602098	harmless	1.0	0.0	False
603.074	0.0	1Suff w/o Lat.	12	603074	nervous	1.0	1.0	True
604.174	0.0	2Suff w/o Lat.	22	604174	immunization	1.0	0.0	False
605.341	0.0	1Suff w/ Lat.	11	605341	affirmative	1.0	0.0	False
606.575	0.0	1Suff PseudoStemNW	14	606575	tipely	0.0	1.0	False
607.65	0.0	1Suff PseudoStemNW	14	607650	analkable	0.0	1.0	False
608.825	0.0	0Suff w/o Lat.	2	608825	hero	1.0	0.0	False
611.059	0.0	1Suff w/o Lat.	12	611059	statistical	1.0	0.0	False
612.243	0.0	1Suff w/o Lat.	12	612243	peaceful	1.0	0.0	False
613.293	0.0	2Suff w/o Lat.	22	613293	directional	1.0	0.0	False
614.652	0.0	2Suff w/o Lat.	22	614652	basically	1.0	0.0	False
616.203	0.0	2Suff RealStemNW	25	616203	provocatfully	0.0	1.0	False
617.745	0.0	0Suff NW	4	617745	eltene	0.0	1.0	False
619.07	0.0	2Suff w/o Lat.	22	619070	nervousness	1.0	0.0	False
620.712	0.0	1Suff w/o Lat.	12	620712	delightful	1.0	0.0	False
621.804	0.0	2Suff PseudoStemNW	24	621804	avoldability	0.0	1.0	False
623.272	0.0	0Suff NW	4	623272	goult	0.0	1.0	False
624.23	0.0	2Suff RealStemNW	25	624230	forgetiveness	0.0	1.0	False
625.831	0.0	1Suff RealStemNW	15	625831	poetal	0.0	1.0	False
627.189	0.0	2Suff w/o Lat.	22	627189	originator	1.0	0.0	False
628.473	0.0	2Suff w/o Lat.	22	628473	ceremonially	1.0	0.0	False
630.099	0.0	1Suff PseudoStemNW	14	630099	dehonite	0.0	1.0	False
631.624	0.0	2Suff w/o Lat.	22	631624	materialistic	1.0	0.0	False
632.816	0.0	2Suff w/o Lat.	22	632816	timeliness	1.0	0.0	False
634.558	0.0	1Suff PseudoStemNW	14	634558	hythical	0.0	1.0	False
635.717	0.0	2Suff w/o Lat.	22	635717	thankfulness	1.0	0.0	False
636.767	0.0	1Suff PseudoStemNW	14	636767	mowthure	0.0	1.0	False
638.426	0.0	1Suff w/o Lat.	12	638426	validate	1.0	0.0	False
639.443	0.0	2Suff PseudoStemNW	24	639443	thashfulness	0.0	1.0	False
640.602	0.0	2Suff Composite	23	640602	deterministic	1.0	0.0	False
642.119	0.0	0Suff NW	4	642119	urmer	0.0	1.0	False
643.203	0.0	0Suff NW	4	643203	dehone	0.0	1.0	False
644.195	0.0	0Suff w/ Lat.	1	644195	extend	1.0	0.0	False
645.337	0.0	0Suff w/o Lat.	2	645337	soft	1.0	0.0	False
646.504	0.0	0Suff w/o Lat.	2	646504	delight	1.0	0.0	False
647.521	0.0	1Suff PseudoStemNW	14	647521	mosimize	0.0	1.0	False
648.571	0.0	0Suff w/o Lat.	2	648571	guilt	1.0	0.0	False
649.63	0.0	1Suff w/o Lat.	12	649630	execution	1.0	0.0	False
650.563	0.0	1Suff RealStemNW	15	650563	intensful	0.0	1.0	False
651.714	0.0	0Suff NW	4	651714	frala	0.0	1.0	False
652.697	0.0	2Suff RealStemNW	25	652697	relatifiable	0.0	1.0	False
653.723	0.0	1Suff w/o Lat.	12	653723	global	1.0	0.0	False
654.756	0.0	1Suff w/o Lat.	12	654756	believable	1.0	0.0	False
655.732	0.0	2Suff w/o Lat.	22	655732	worthlessness	1.0	0.0	False
656.965	0.0	0Suff w/ Lat.	1	656965	affirm	1.0	0.0	False
657.957	0.0	1Suff w/o Lat.	12	657957	useless	1.0	0.0	False
658.916	0.0	2Suff Composite	23	658916	sterilization	1.0	0.0	False
660.1	0.0	0Suff w/o Lat.	2	660100	assassin	1.0	0.0	False
661.092	0.0	0Suff w/o Lat.	2	661092	believe	1.0	0.0	False
661.958	0.0	0Suff w/o Lat.	2	661958	market	1.0	0.0	False
662.834	0.0	2Suff Composite	23	662834	characteristic	1.0	0.0	False
666.118	0.0	0Suff NW	4	666118	degor	0.0	0.0	True
666.943	0.0	2Suff PseudoStemNW	24	666943	adstification	0.0	0.0	True
667.71	0.0	0Suff NW	4	667710	restit	0.0	1.0	False
668.786	0.0	0Suff NW	4	668786	faulm	0.0	1.0	False
669.627	0.0	2Suff PseudoStemNW	24	669627	diructorship	0.0	1.0	False
670.661	0.0	0Suff w/o Lat.	2	670661	decor	1.0	1.0	True
671.545	0.0	2Suff w/o Lat.	22	671545	hopelessness	1.0	0.0	False
672.453	0.0	1Suff w/o Lat.	12	672453	mythical	1.0	0.0	False
673.32	0.0	1Suff PseudoStemNW	14	673320	girernment	0.0	1.0	False
674.396	0.0	2Suff w/o Lat.	22	674396	outwardly	1.0	0.0	False
675.446	0.0	1Suff w/o Lat.	12	675446	competitive	1.0	0.0	False
676.513	0.0	1Suff w/o Lat.	12	676513	government	1.0	0.0	False
677.463	0.0	2Suff RealStemNW	25	677463	editerize	0.0	0.0	True
678.605	0.0	2Suff w/o Lat.	22	678605	musically	1.0	0.0	False
679.664	0.0	1Suff w/o Lat.	12	679664	dramatic	1.0	1.0	True
680.623	0.0	1Suff PseudoStemNW	14	680623	sushective	0.0	1.0	False
681.673	0.0	0Suff NW	4	681673	mowth	0.0	0.0	True
682.873	0.0	2Suff PseudoStemNW	24	682873	snoughtfully	0.0	1.0	False
684.574	0.0	2Suff w/o Lat.	22	684574	validation	1.0	0.0	False
685.599	0.0	2Suff w/ Lat.	21	685599	persistently	1.0	1.0	True
686.666	0.0	1Suff w/o Lat.	12	686666	essential	1.0	0.0	False
687.758	0.0	2Suff w/o Lat.	22	687758	statistically	1.0	0.0	False
688.708	0.0	0Suff w/o Lat.	2	688708	fast	1.0	0.0	False
689.6	0.0	0Suff w/o Lat.	2	689600	fury	1.0	1.0	True
690.709	0.0	2Suff RealStemNW	25	690709	materialional	0.0	1.0	False
692.501	0.0	0Suff NW	4	692501	cunerogy	0.0	0.0	True
693.51	0.0	0Suff NW	4	693510	bant	0.0	1.0	False
695.669	0.0	1Suff w/o Lat.	12	695669	familiar	1.0	0.0	False
696.602	0.0	2Suff PseudoStemNW	24	696602	cidlical	0.0	1.0	False
697.653	0.0	0Suff w/o Lat.	2	697653	thank	1.0	0.0	False
698.586	0.0	0Suff NW	4	698586	han	0.0	1.0	False
699.787	0.0	2Suff PseudoStemNW	24	699787	nerbously	0.0	1.0	False
701.104	0.0	0Suff w/o Lat.	2	701104	harm	1.0	0.0	False
702.488	0.0	0Suff w/o Lat.	2	702488	fate	1.0	0.0	False
703.421	0.0	1Suff RealStemNW	15	703421	forgetive	0.0	n/a	False
705.822	0.0	2Suff w/ Lat.	21	705822	predictably	1.0	0.0	False
707.698	0.0	2Suff w/o Lat.	22	707698	guiltiness	1.0	1.0	True
709.115	0.0	2Suff RealStemNW	25	709115	friendionist	0.0	1.0	False
710.715	0.0	2Suff w/o Lat.	22	710715	seasonally	1.0	0.0	False
711.849	0.0	2Suff w/o Lat.	22	711849	differentiate	1.0	0.0	False
713.091	0.0	0Suff NW	4	713091	prebit	0.0	1.0	False
714.516	0.0	0Suff NW	4	714516	coul	0.0	1.0	False
715.683	0.0	2Suff PseudoStemNW	24	715683	reratively	0.0	1.0	False
717.476	0.0	0Suff w/o Lat.	2	717476	confess	1.0	0.0	False
718.901	0.0	2Suff w/o Lat.	22	718901	magnetically	1.0	0.0	False
720.476	0.0	2Suff w/o Lat.	22	720476	polarity	1.0	0.0	False
721.66	0.0	2Suff RealStemNW	25	721660	guardifiance	0.0	1.0	False
723.211	0.0	0Suff NW	4	723211	ute	0.0	1.0	False
724.144	0.0	1Suff w/o Lat.	12	724144	notify	1.0	0.0	False
725.236	0.0	0Suff NW	4	725236	attossin	0.0	1.0	False
726.862	0.0	2Suff PseudoStemNW	24	726862	miccessfully	0.0	1.0	False
728.229	0.0	0Suff NW	4	728229	glibe	0.0	1.0	False
729.513	0.0	1Suff w/o Lat.	12	729513	logical	1.0	0.0	False
730.58	0.0	0Suff NW	4	730580	etil	0.0	1.0	False
731.605	0.0	1Suff PseudoStemNW	14	731605	worchless	0.0	1.0	False
732.73	0.0	1Suff RealStemNW	15	732730	educatate	0.0	1.0	False
734.039	0.0	2Suff w/o Lat.	22	734039	orderliness	1.0	0.0	False
735.623	0.0	2Suff RealStemNW	25	735623	periodally	0.0	0.0	True
736.665	0.0	0Suff NW	4	736665	analk	0.0	1.0	False
737.573	0.0	2Suff PseudoStemNW	24	737573	allidation	0.0	1.0	False
738.724	0.0	2Suff RealStemNW	25	738724	assassinfully	0.0	0.0	True
739.849	0.0	2Suff Composite	23	739849	quotation	1.0	0.0	False
740.999	0.0	2Suff RealStemNW	25	740999	considerishly	0.0	1.0	False
742.45	0.0	2Suff w/o Lat.	22	742450	gloriously	1.0	0.0	False
744.084	0.0	2Suff PseudoStemNW	24	744084	dehonitive	0.0	1.0	False
745.234	0.0	2Suff RealStemNW	25	745234	editionate	0.0	1.0	False
747.226	0.0	2Suff PseudoStemNW	24	747226	artlitackural	0.0	1.0	False
748.31	0.0	1Suff w/o Lat.	12	748310	seasonal	1.0	0.0	False
749.269	0.0	2Suff w/o Lat.	22	749269	nervously	1.0	0.0	False
750.261	0.0	1Suff RealStemNW	15	750261	mistaker	0.0	1.0	False
751.353	0.0	0Suff NW	4	751353	ippune	0.0	1.0	False
752.395	0.0	1Suff w/o Lat.	12	752395	partial	1.0	0.0	False
753.345	0.0	1Suff PseudoStemNW	14	753345	wrotify	0.0	1.0	False
754.387	0.0	2Suff PseudoStemNW	24	754387	posicarization	0.0	1.0	False
755.454	0.0	1Suff PseudoStemNW	14	755454	priueurant	0.0	1.0	False
756.504	0.0	0Suff NW	4	756504	avold	0.0	1.0	False
757.555	0.0	0Suff w/o Lat.	2	757555	ritual	1.0	0.0	False
758.73	0.0	1Suff PseudoStemNW	14	758730	chansotion	0.0	1.0	False
759.939	0.0	2Suff PseudoStemNW	24	759939	ictressionism	0.0	1.0	False
761.014	0.0	1Suff w/ Lat.	11	761014	instruction	1.0	0.0	False
762.123	0.0	2Suff RealStemNW	25	762123	confessality	0.0	0.0	True
763.431	0.0	0Suff w/o Lat.	2	763431	agree	1.0	0.0	False
764.523	0.0	0Suff NW	4	764523	distawks	0.0	1.0	False
765.582	0.0	1Suff RealStemNW	15	765582	eany	0.0	1.0	False
766.649	0.0	2Suff w/o Lat.	22	766649	usefully	1.0	0.0	False
767.866	0.0	0Suff NW	4	767866	girern	0.0	1.0	False
768.85	0.0	0Suff NW	4	768850	chansot	0.0	1.0	False
770.042	0.0	2Suff PseudoStemNW	24	770042	essoilially	0.0	1.0	False
771.2	0.0	2Suff PseudoStemNW	24	771200	chirdishly	0.0	1.0	False
772.209	0.0	1Suff PseudoStemNW	14	772209	degorate	0.0	1.0	False
773.559	0.0	0Suff w/o Lat.	2	773559	out	1.0	1.0	True
774.401	0.0	1Suff w/o Lat.	12	774401	painful	1.0	0.0	False
775.36	0.0	2Suff PseudoStemNW	24	775360	rerational	0.0	1.0	False
777.019	0.0	2Suff w/o Lat.	22	777019	healthily	1.0	0.0	False
778.803	0.0	2Suff PseudoStemNW	24	778803	pafferentiate	0.0	1.0	False
780.287	0.0	0Suff w/o Lat.	2	780287	edit	1.0	0.0	False
781.354	0.0	0Suff w/o Lat.	2	781354	period	1.0	0.0	False
782.429	0.0	2Suff w/o Lat.	22	782429	leaderless	1.0	0.0	False
783.604	0.0	1Suff w/o Lat.	12	783604	idealist	1.0	0.0	False
784.846	0.0	2Suff RealStemNW	25	784846	governancial	0.0	0.0	True
786.43	0.0	2Suff RealStemNW	25	786430	financeical	0.0	1.0	False
788.206	0.0	1Suff w/o Lat.	12	788206	polar	1.0	0.0	False
789.589	0.0	1Suff PseudoStemNW	14	789589	rhylphic	0.0	1.0	False
790.765	0.0	0Suff w/o Lat.	2	790765	direct	1.0	0.0	False
792.057	0.0	2Suff w/o Lat.	22	792057	thickener	1.0	0.0	False
793.366	0.0	2Suff Composite	23	793366	revitalization	1.0	0.0	False
795.558	0.0	1Suff w/ Lat.	11	795558	subjective	1.0	0.0	False
796.55	0.0	0Suff w/o Lat.	2	796550	immune	1.0	0.0	False
797.567	0.0	2Suff PseudoStemNW	24	797567	tutiously	0.0	1.0	False
798.617	0.0	2Suff Composite	23	798617	affectation	1.0	0.0	False
799.818	0.0	2Suff Composite	23	799818	stratification	1.0	1.0	True
801.718	0.0	1Suff PseudoStemNW	14	801718	imoatist	0.0	1.0	False
803.069	0.0	0Suff w/o Lat.	2	803069	occasion	1.0	0.0	False
804.119	0.0	2Suff RealStemNW	25	804119	quotfully	0.0	1.0	False
805.403	0.0	2Suff w/o Lat.	22	805403	idealistic	1.0	0.0	False
806.47	0.0	1Suff RealStemNW	15	806470	considerion	0.0	0.0	True
807.662	0.0	1Suff w/o Lat.	12	807662	sleepy	1.0	0.0	False
808.629	0.0	0Suff NW	4	808629	figic	0.0	1.0	False
809.596	0.0	1Suff RealStemNW	15	809596	useive	0.0	1.0	False
811.888	0.0	2Suff PseudoStemNW	24	811888	distawksively	0.0	1.0	False
813.263	0.0	2Suff w/o Lat.	22	813263	partiality	1.0	0.0	False
814.297	0.0	2Suff Composite	23	814297	cannibalistic	1.0	0.0	False
815.639	0.0	2Suff w/ Lat.	21	815639	extensively	1.0	0.0	False
817.181	0.0	1Suff PseudoStemNW	14	817181	essoilial	0.0	1.0	False
818.181	0.0	1Suff PseudoStemNW	14	818181	affallion	0.0	1.0	False
819.324	0.0	2Suff PseudoStemNW	24	819324	mosimization	0.0	1.0	False
820.474	0.0	1Suff w/ Lat.	11	820474	impression	1.0	0.0	False
821.658	0.0	2Suff w/ Lat.	21	821658	impressionist	1.0	0.0	False
822.808	0.0	1Suff PseudoStemNW	14	822808	meabonal	0.0	1.0	False
824.058	0.0	1Suff w/o Lat.	12	824058	addition	1.0	0.0	False
825.167	0.0	1Suff RealStemNW	15	825167	wakeive	0.0	1.0	False
826.284	0.0	0Suff w/o Lat.	2	826284	design	1.0	0.0	False
827.451	0.0	1Suff w/o Lat.	12	827451	accidental	1.0	0.0	False
828.71	0.0	2Suff PseudoStemNW	24	828710	snoughtlessly	0.0	1.0	False
829.977	0.0	2Suff PseudoStemNW	24	829977	analkability	0.0	1.0	False
831.06	0.0	0Suff w/o Lat.	2	831060	thick	1.0	0.0	False
832.436	0.0	2Suff w/o Lat.	22	832436	additional	1.0	0.0	False
833.486	0.0	2Suff RealStemNW	25	833486	commutfully	0.0	1.0	False
835.537	0.0	0Suff w/o Lat.	2	835537	substance	1.0	0.0	False
836.779	0.0	2Suff w/o Lat.	22	836779	profitably	1.0	0.0	False
837.938	0.0	1Suff RealStemNW	15	837938	nervate	0.0	1.0	False
838.863	0.0	1Suff PseudoStemNW	14	838863	farsen	0.0	1.0	False
839.838	0.0	2Suff PseudoStemNW	24	839838	cunerogially	0.0	1.0	False
840.813	0.0	0Suff w/o Lat.	2	840813	real	1.0	0.0	False
841.78	0.0	1Suff PseudoStemNW	14	841780	hodeful	0.0	1.0	False
842.772	0.0	2Suff w/o Lat.	22	842772	fastener	1.0	0.0	False
843.814	0.0	1Suff w/o Lat.	12	843814	outward	1.0	0.0	False
844.756	0.0	2Suff PseudoStemNW	24	844756	tipeliness	0.0	1.0	False
845.923	0.0	2Suff RealStemNW	25	845923	directality	0.0	1.0	False
847.374	0.0	1Suff w/o Lat.	12	847374	aimless	1.0	0.0	False
848.549	0.0	0Suff NW	4	848549	ewsib	0.0	1.0	False
849.533	0.0	2Suff w/o Lat.	22	849533	stealthily	1.0	0.0	False
850.725	0.0	1Suff w/o Lat.	12	850725	thicken	1.0	0.0	False
851.75	0.0	2Suff Composite	23	851750	allegation	1.0	0.0	False
852.775	0.0	1Suff w/o Lat.	12	852775	gleeful	1.0	0.0	False
853.701	0.0	1Suff PseudoStemNW	14	853701	prebitable	0.0	1.0	False
854.793	0.0	2Suff PseudoStemNW	24	854793	vimidation	0.0	1.0	False
855.81	0.0	2Suff RealStemNW	25	855810	hopeively	0.0	1.0	False
856.835	0.0	1Suff w/o Lat.	12	856835	provocative	1.0	0.0	False
857.902	0.0	0Suff NW	4	857902	paffer	0.0	1.0	False
858.944	0.0	1Suff RealStemNW	15	858944	furance	0.0	1.0	False
859.886	0.0	2Suff w/o Lat.	22	859886	uselessness	1.0	0.0	False
860.911	0.0	1Suff w/o Lat.	12	860911	direction	1.0	0.0	False
861.97	0.0	1Suff RealStemNW	15	861970	manen	0.0	1.0	False
862.92	0.0	1Suff w/ Lat.	11	862920	predictable	1.0	0.0	False
863.954	0.0	1Suff RealStemNW	15	863954	availless	0.0	1.0	False
865.163	0.0	0Suff NW	4	865163	rerard	0.0	1.0	False
866.263	0.0	0Suff w/o Lat.	2	866263	function	1.0	0.0	False
867.338	0.0	0Suff NW	4	867338	thash	0.0	1.0	False
868.447	0.0	2Suff Composite	23	868447	vexation	1.0	1.0	True
869.431	0.0	2Suff w/o Lat.	22	869431	decisiveness	1.0	0.0	False
870.656	0.0	2Suff PseudoStemNW	24	870656	orifadality	0.0	1.0	False
871.873	0.0	2Suff RealStemNW	25	871873	vitalilessly	0.0	1.0	False
873.615	0.0	2Suff w/o Lat.	22	873615	financially	1.0	0.0	False
874.799	0.0	1Suff w/o Lat.	12	874799	immunize	1.0	0.0	False
876.058	0.0	2Suff RealStemNW	25	876058	marketfulness	0.0	0.0	True
877.15	0.0	1Suff PseudoStemNW	14	877150	nolify	0.0	1.0	False
878.3	0.0	2Suff RealStemNW	25	878300	graceively	0.0	1.0	False
880.101	0.0	2Suff w/o Lat.	22	880101	fatalist	1.0	0.0	False
881.443	0.0	1Suff RealStemNW	15	881443	impressate	0.0	1.0	False
882.893	0.0	1Suff w/o Lat.	12	882893	painless	1.0	0.0	False
883.968	0.0	0Suff w/o Lat.	2	883968	worth	1.0	0.0	False
885.052	0.0	0Suff w/o Lat.	2	885052	ideal	1.0	0.0	False
886.027	0.0	2Suff PseudoStemNW	24	886027	coppentator	0.0	1.0	False
887.069	0.0	2Suff Composite	23	887069	organization	1.0	0.0	False
888.003	0.0	0Suff w/o Lat.	2	888003	decide	1.0	0.0	False
889.07	0.0	0Suff NW	4	889070	meabon	0.0	1.0	False
890.12	0.0	0Suff w/o Lat.	2	890120	cheer	1.0	0.0	False
891.137	0.0	1Suff w/o Lat.	12	891137	exhaustive	1.0	0.0	False
892.479	0.0	1Suff RealStemNW	15	892479	protectate	0.0	1.0	False
893.755	0.0	2Suff RealStemNW	25	893755	persistalism	0.0	1.0	False
894.847	0.0	2Suff w/ Lat.	21	894847	conceptually	1.0	0.0	False
896.172	0.0	0Suff w/o Lat.	2	896172	note	1.0	0.0	False
897.214	0.0	2Suff PseudoStemNW	24	897214	onnensively	0.0	1.0	False
898.631	0.0	2Suff w/o Lat.	22	898631	dramatically	1.0	0.0	False
899.707	0.0	0Suff w/o Lat.	2	899707	accident	1.0	0.0	False
900.782	0.0	0Suff NW	4	900782	deabon	0.0	1.0	False
901.816	0.0	1Suff w/ Lat.	11	901816	affection	1.0	0.0	False
902.974	0.0	0Suff w/o Lat.	2	902974	isolate	1.0	0.0	False
904.316	0.0	0Suff NW	4	904316	priueur	0.0	1.0	False
905.375	0.0	1Suff RealStemNW	15	905375	isolatate	0.0	1.0	False
906.659	0.0	1Suff w/o Lat.	12	906659	decorate	1.0	0.0	False
907.809	0.0	1Suff PseudoStemNW	14	907809	uteless	0.0	1.0	False
908.934	0.0	0Suff NW	4	908934	fale	0.0	0.0	True
909.926	0.0	0Suff NW	4	909926	coppent	0.0	1.0	False
910.993	0.0	1Suff PseudoStemNW	14	910993	wrotious	0.0	1.0	False
912.044	0.0	1Suff w/o Lat.	12	912044	distinctive	1.0	0.0	False
913.077	0.0	2Suff RealStemNW	25	913077	futurional	0.0	1.0	False
914.161	0.0	2Suff w/o Lat.	22	914161	ethically	1.0	0.0	False
915.111	0.0	0Suff NW	4	915111	tuty	0.0	1.0	False
916.045	0.0	2Suff w/o Lat.	22	916045	realistic	1.0	0.0	False
916.995	0.0	0Suff NW	4	916995	instrove	0.0	1.0	False
917.979	0.0	2Suff w/o Lat.	22	917979	idealization	1.0	0.0	False
918.996	0.0	1Suff RealStemNW	15	918996	architectian	0.0	1.0	False
920.563	0.0	1Suff w/o Lat.	12	920563	marginal	1.0	0.0	False
921.538	0.0	1Suff w/o Lat.	12	921538	materialist	1.0	0.0	False
922.622	0.0	2Suff RealStemNW	25	922622	dramationist	0.0	1.0	False
924.097	0.0	2Suff PseudoStemNW	24	924097	nerbousness	0.0	1.0	False
925.073	0.0	2Suff w/o Lat.	22	925073	considerably	1.0	0.0	False
926.106	0.0	1Suff RealStemNW	15	926106	persistify	0.0	1.0	False
927.557	0.0	1Suff PseudoStemNW	14	927557	falal	0.0	1.0	False
928.932	0.0	2Suff RealStemNW	25	928932	ritualional	0.0	1.0	False
930.308	0.0	2Suff RealStemNW	25	930308	musicical	0.0	1.0	False
931.708	0.0	0Suff NW	4	931708	tipe	0.0	1.0	False
932.833	0.0	1Suff w/o Lat.	12	932833	basic	1.0	1.0	True
933.809	0.0	1Suff w/o Lat.	12	933809	intensive	1.0	0.0	False
935.026	0.0	2Suff PseudoStemNW	24	935026	paftially	0.0	1.0	False
936.134	0.0	0Suff NW	4	936134	rhylph	0.0	1.0	False
937.176	0.0	0Suff NW	4	937176	gloo	0.0	1.0	False
938.127	0.0	2Suff w/o Lat.	22	938127	regrettably	1.0	0.0	False
939.169	0.0	0Suff w/o Lat.	2	939169	guard	1.0	0.0	False
940.227	0.0	2Suff w/o Lat.	22	940227	reasonably	1.0	0.0	False
941.211	0.0	0Suff w/o Lat.	2	941211	pole	1.0	0.0	False
942.32	0.0	2Suff PseudoStemNW	24	942320	hodelessness	0.0	1.0	False
943.528	0.0	1Suff PseudoStemNW	14	943528	urmerly	0.0	1.0	False
944.645	0.0	0Suff NW	4	944645	headth	0.0	1.0	False
945.912	0.0	1Suff w/o Lat.	12	945912	rhythmic	1.0	0.0	False
946.938	0.0	1Suff w/ Lat.	11	946938	persistent	1.0	0.0	False
951.122	0.0	2Suff PseudoStemNW	24	951122	devesugmental	0.0	1.0	False
952.198	0.0	0Suff NW	4	952198	falget	0.0	1.0	False
953.165	0.0	1Suff w/o Lat.	12	953165	thoughtful	1.0	1.0	True
954.39	0.0	2Suff PseudoStemNW	24	954390	otification	0.0	1.0	False
955.532	0.0	0Suff NW	4	955532	stumia	0.0	1.0	False
956.616	0.0	2Suff PseudoStemNW	24	956616	concolerably	0.0	1.0	False
957.574	0.0	1Suff RealStemNW	15	957574	assassinion	0.0	0.0	True
958.566	0.0	0Suff NW	4	958566	stoteld	0.0	1.0	False
959.642	0.0	2Suff w/o Lat.	22	959642	restlessness	1.0	0.0	False
960.892	0.0	2Suff w/o Lat.	22	960892	mythically	1.0	0.0	False
962.026	0.0	1Suff w/o Lat.	12	962026	notable	1.0	0.0	False
963.376	0.0	2Suff w/o Lat.	22	963376	persuasively	1.0	0.0	False
964.485	0.0	2Suff w/o Lat.	22	964485	notably	1.0	0.0	False
965.627	0.0	0Suff NW	4	965627	eshaums	0.0	1.0	False
967.061	0.0	2Suff w/o Lat.	22	967061	delightfully	1.0	0.0	False
968.028	0.0	1Suff w/o Lat.	12	968028	isolation	1.0	0.0	False
969.17	0.0	1Suff w/o Lat.	12	969170	director	1.0	0.0	False
970.17	0.0	2Suff RealStemNW	25	970170	persuasfully	0.0	1.0	False
971.679	0.0	2Suff w/o Lat.	22	971679	relativity	1.0	0.0	False
972.721	0.0	1Suff PseudoStemNW	14	972721	diruction	0.0	0.0	True
973.938	0.0	0Suff NW	4	973938	corzess	0.0	1.0	False
975.213	0.0	2Suff w/o Lat.	22	975213	awfulness	1.0	0.0	False
977.097	0.0	0Suff w/o Lat.	2	977097	sterile	1.0	0.0	False
978.848	0.0	1Suff RealStemNW	15	978848	developward	0.0	1.0	False
979.965	0.0	1Suff w/o Lat.	12	979965	mobilize	1.0	0.0	False
980.89	0.0	0Suff w/o Lat.	2	980890	poet	1.0	0.0	False
981.873	0.0	2Suff PseudoStemNW	24	981873	gloofully	0.0	1.0	False
982.924	0.0	2Suff w/o Lat.	22	982924	softener	1.0	0.0	False
984.833	0.0	2Suff RealStemNW	25	984833	familiately	0.0	0.0	True
986.483	0.0	2Suff RealStemNW	25	986483	differalism	0.0	1.0	False
988.567	0.0	2Suff PseudoStemNW	24	988567	arfulness	0.0	n/a	False
990.968	0.0	2Suff RealStemNW	25	990968	projectliness	0.0	1.0	False
992.66	0.0	1Suff PseudoStemNW	14	992660	headthy	0.0	1.0	False
993.719	0.0	2Suff PseudoStemNW	24	993719	hodelessly	0.0	1.0	False
995.278	0.0	0Suff NW	4	995278	isotent	0.0	1.0	False
996.853	0.0	0Suff NW	4	996853	thiend	0.0	1.0	False
997.862	0.0	1Suff PseudoStemNW	14	997862	halkless	0.0	1.0	False
998.754	0.0	2Suff RealStemNW	25	998754	awively	0.0	0.0	True
999.871	0.0	2Suff RealStemNW	25	999871	realional	0.0	1.0	False
1001.346	0.0	0Suff NW	4	1001346	gulbs	0.0	1.0	False
1002.338	0.0	2Suff PseudoStemNW	24	1002338	eetwardly	0.0	1.0	False
1003.238	0.0	0Suff NW	4	1003238	sest	0.0	1.0	False
1003.997	0.0	0Suff w/o Lat.	2	1003997	comment	1.0	1.0	True
1004.731	0.0	2Suff w/o Lat.	22	1004731	relatively	1.0	0.0	False
1006.481	0.0	0Suff w/o Lat.	2	1006481	essence	1.0	0.0	False
1007.715	0.0	1Suff RealStemNW	15	1007715	thoughtive	0.0	1.0	False
1009.19	0.0	0Suff w/o Lat.	2	1009190	profit	1.0	0.0	False
1010.941	0.0	2Suff RealStemNW	25	1010941	polioner	0.0	1.0	False
1012.858	0.0	2Suff RealStemNW	25	1012858	dramatilessly	0.0	1.0	False
1014.4	0.0	0Suff w/o Lat.	2	1014400	man	1.0	0.0	False
1015.917	0.0	2Suff RealStemNW	25	1015917	glorifilessly	0.0	1.0	False
1017.309	0.0	1Suff w/o Lat.	12	1017309	sterilize	1.0	0.0	False
1018.36	0.0	0Suff w/o Lat.	2	1018360	trivia	1.0	0.0	False
1019.718	0.0	1Suff PseudoStemNW	14	1019718	deabonable	0.0	1.0	False
1020.952	0.0	1Suff RealStemNW	15	1020952	differious	0.0	1.0	False
1022.453	0.0	2Suff w/o Lat.	22	1022453	forgetfulness	1.0	0.0	False
1023.561	0.0	1Suff w/o Lat.	12	1023561	heroic	1.0	0.0	False
1024.628	0.0	2Suff RealStemNW	25	1024628	satirally	0.0	1.0	False
1026.112	0.0	1Suff w/o Lat.	12	1026112	speedy	1.0	0.0	False
1027.237	0.0	0Suff w/o Lat.	2	1027237	child	1.0	0.0	False
1028.271	0.0	1Suff PseudoStemNW	14	1028271	etilor	0.0	1.0	False
1029.288	0.0	1Suff RealStemNW	15	1029288	basly	0.0	1.0	False
1030.297	0.0	1Suff PseudoStemNW	14	1030297	prowertion	0.0	1.0	False
1031.272	0.0	0Suff w/o Lat.	2	1031272	wake	1.0	0.0	False
1032.356	0.0	1Suff w/ Lat.	11	1032356	available	1.0	0.0	False
1033.414	0.0	2Suff w/o Lat.	22	1033414	furiously	1.0	0.0	False
1035.09	0.0	1Suff PseudoStemNW	14	1035090	pavediadist	0.0	1.0	False
1036.165	0.0	0Suff NW	4	1036165	awd	0.0	1.0	False
1037.199	0.0	2Suff w/ Lat.	21	1037199	availability	1.0	0.0	False
1038.116	0.0	1Suff PseudoStemNW	14	1038116	fralatize	0.0	1.0	False
1039.516	0.0	0Suff NW	4	1039516	mosime	0.0	1.0	False
1040.642	0.0	2Suff PseudoStemNW	24	1040642	desalkation	0.0	1.0	False
1041.667	0.0	0Suff w/o Lat.	2	1041667	triumph	1.0	0.0	False
1042.859	0.0	1Suff w/o Lat.	12	1042859	stealthy	1.0	0.0	False
1044.018	0.0	2Suff RealStemNW	25	1044018	notifilessly	0.0	1.0	False
1045.385	0.0	2Suff PseudoStemNW	24	1045385	worchlessness	0.0	1.0	False
1046.493	0.0	0Suff NW	4	1046493	wead	0.0	1.0	False
1047.644	0.0	0Suff w/o Lat.	2	1047644	distinct	1.0	0.0	False
1048.777	0.0	0Suff w/o Lat.	2	1048777	material	1.0	0.0	False
1049.811	0.0	2Suff w/o Lat.	22	1049811	editorial	1.0	0.0	False
1050.778	0.0	2Suff PseudoStemNW	24	1050778	vefation	0.0	1.0	False
1051.978	0.0	1Suff RealStemNW	15	1051978	gracance	0.0	1.0	False
1053.004	0.0	2Suff PseudoStemNW	24	1053004	squasification	0.0	1.0	False
1054.187	0.0	1Suff w/o Lat.	12	1054187	ritualist	1.0	0.0	False
1055.371	0.0	0Suff NW	4	1055371	helily	0.0	1.0	False
1056.513	0.0	0Suff w/o Lat.	2	1056513	health	1.0	0.0	False
1057.572	0.0	2Suff RealStemNW	25	1057572	fatantly	0.0	1.0	False
1059.014	0.0	2Suff Composite	23	1059014	simplification	1.0	1.0	True
1060.114	0.0	1Suff RealStemNW	15	1060114	polit	0.0	1.0	False
1061.198	0.0	0Suff NW	4	1061198	affaid	0.0	1.0	False
1062.465	0.0	0Suff w/o Lat.	2	1062465	ease	1.0	0.0	False
1063.565	0.0	2Suff Composite	23	1063565	canonical	1.0	1.0	True
1064.574	0.0	1Suff w/o Lat.	12	1064574	timely	1.0	0.0	False
1065.716	0.0	2Suff w/o Lat.	22	1065716	provocatively	1.0	0.0	False
1067.116	0.0	0Suff NW	4	1067116	detisms	0.0	1.0	False
1068.092	0.0	1Suff RealStemNW	15	1068092	idealate	0.0	1.0	False
1069.384	0.0	2Suff w/o Lat.	22	1069384	developmental	1.0	0.0	False
1070.417	0.0	1Suff RealStemNW	15	1070417	conceptuic	0.0	1.0	False
1071.801	0.0	1Suff w/o Lat.	12	1071801	magnetic	1.0	0.0	False
1072.726	0.0	2Suff w/o Lat.	22	1072726	decorator	1.0	0.0	False
1074.227	0.0	1Suff PseudoStemNW	14	1074227	glibal	0.0	1.0	False
1075.152	0.0	0Suff NW	4	1075152	hesa	0.0	1.0	False
1076.036	0.0	0Suff w/o Lat.	2	1076036	rest	1.0	0.0	False
1076.978	0.0	2Suff w/o Lat.	22	1076978	definitely	1.0	0.0	False
1077.903	0.0	1Suff w/o Lat.	12	1077903	manly	1.0	0.0	False
1078.795	0.0	2Suff w/o Lat.	22	1078795	cheerfulness	1.0	0.0	False
1079.687	0.0	1Suff w/o Lat.	12	1079687	guilty	1.0	0.0	False
1080.671	0.0	2Suff PseudoStemNW	24	1080671	pasklessly	0.0	1.0	False
1082.263	0.0	1Suff PseudoStemNW	14	1082263	stumial	0.0	1.0	False
1083.555	0.0	2Suff w/o Lat.	22	1083555	isolationism	1.0	1.0	True
1085.689	0.0	1Suff PseudoStemNW	14	1085689	snoughtless	0.0	1.0	False
1086.797	0.0	2Suff w/o Lat.	22	1086797	frightfully	1.0	0.0	False
1088.34	0.0	2Suff Composite	23	1088340	autistic	1.0	1.0	True
1090.507	0.0	1Suff w/o Lat.	12	1090507	development	1.0	0.0	False
1091.657	0.0	0Suff NW	4	1091657	eserete	0.0	1.0	False
1092.683	0.0	0Suff w/o Lat.	2	1092683	globe	1.0	0.0	False
1093.6	0.0	2Suff Composite	23	1093600	utilization	1.0	0.0	False
1094.608	0.0	2Suff Composite	23	1094608	categorical	1.0	0.0	False
1095.542	0.0	1Suff RealStemNW	15	1095542	soulive	0.0	1.0	False
1099.235	0.0	1Suff RealStemNW	15	1099235	financeic	0.0	1.0	False
1100.51	0.0	1Suff PseudoStemNW	14	1100510	coppentate	0.0	1.0	False
1101.535	0.0	2Suff PseudoStemNW	24	1101535	headthily	0.0	1.0	False
1102.494	0.0	0Suff NW	4	1102494	snought	0.0	1.0	False
1103.528	0.0	1Suff RealStemNW	15	1103528	logicic	0.0	1.0	False
1104.561	0.0	1Suff w/o Lat.	12	1104561	financial	1.0	0.0	False
1105.612	0.0	2Suff Composite	23	1105612	vitalization	1.0	0.0	False
1107.345	0.0	0Suff NW	4	1107345	arx	0.0	0.0	True
1108.537	0.0	1Suff RealStemNW	15	1108537	exhibitate	0.0	1.0	False
1110.938	0.0	2Suff PseudoStemNW	24	1110938	pipplification	0.0	1.0	False
1112.055	0.0	2Suff w/o Lat.	22	1112055	partially	1.0	0.0	False
1113.006	0.0	2Suff RealStemNW	25	1113006	definerize	0.0	1.0	False
1114.264	0.0	0Suff NW	4	1114264	prodfess	0.0	1.0	False
1115.365	0.0	0Suff NW	4	1115365	thack	0.0	1.0	False
1116.465	0.0	1Suff w/o Lat.	12	1116465	fasten	1.0	0.0	False
1117.565	0.0	0Suff NW	4	1117565	rumic	0.0	1.0	False
1118.849	0.0	0Suff w/o Lat.	2	1118849	hope	1.0	0.0	False
1119.808	0.0	1Suff PseudoStemNW	14	1119808	distawksive	0.0	1.0	False
1121.133	0.0	0Suff w/o Lat.	2	1121133	govern	1.0	0.0	False
1122.55	0.0	1Suff PseudoStemNW	14	1122550	thiendly	0.0	0.0	True
1123.942	0.0	1Suff w/o Lat.	12	1123942	easy	1.0	0.0	False
1125.043	0.0	1Suff w/o Lat.	12	1125043	glorify	1.0	0.0	False
1125.943	0.0	0Suff w/o Lat.	2	1125943	moist	1.0	1.0	True
1128.077	0.0	1Suff RealStemNW	15	1128077	relatful	0.0	1.0	False
1129.286	0.0	1Suff w/o Lat.	12	1129286	healthy	1.0	0.0	False
1130.286	0.0	0Suff NW	4	1130286	devesug	0.0	1.0	False
1131.386	0.0	0Suff w/ Lat.	1	1131386	avail	1.0	0.0	False
1132.545	0.0	2Suff w/o Lat.	22	1132545	cheerfully	1.0	0.0	False
1133.528	0.0	2Suff w/o Lat.	22	1133528	executioner	1.0	0.0	False
1134.746	0.0	2Suff RealStemNW	25	1134746	decisishness	0.0	1.0	False
1136.379	0.0	1Suff RealStemNW	15	1136379	delightive	0.0	n/a	False
1138.788	0.0	2Suff w/ Lat.	21	1138788	subjectively	1.0	1.0	True
1141.089	0.0	2Suff PseudoStemNW	24	1141089	stumialize	0.0	1.0	False
1142.231	0.0	2Suff PseudoStemNW	24	1142231	denboderation	0.0	1.0	False
1143.265	0.0	1Suff PseudoStemNW	14	1143265	rumical	0.0	1.0	False
1144.323	0.0	2Suff PseudoStemNW	24	1144323	esdybitionism	0.0	1.0	False
1145.299	0.0	2Suff Composite	23	1145299	inflammation	1.0	0.0	False
1146.583	0.0	2Suff Composite	23	1146583	perturbation	1.0	0.0	False
1148.325	0.0	1Suff w/o Lat.	12	1148325	orderly	1.0	0.0	False
1150.009	0.0	2Suff RealStemNW	25	1150009	believator	0.0	0.0	True
1151.142	0.0	0Suff NW	4	1151142	onnense	0.0	0.0	True
1152.793	0.0	2Suff PseudoStemNW	24	1152793	chirdishness	0.0	1.0	False
1155.068	0.0	0Suff NW	4	1155068	exufant	0.0	1.0	False
1156.177	0.0	2Suff RealStemNW	25	1156177	deadionist	0.0	1.0	False
1157.211	0.0	1Suff RealStemNW	15	1157211	ritualify	0.0	n/a	False
1159.612	0.0	2Suff w/o Lat.	22	1159612	deadliness	1.0	0.0	False
1160.945	0.0	2Suff w/o Lat.	22	1160945	easily	1.0	0.0	False
1162.204	0.0	0Suff NW	4	1162204	devade	0.0	1.0	False
1163.296	0.0	0Suff NW	4	1163296	hyth	0.0	1.0	False
1164.363	0.0	0Suff NW	4	1164363	finiles	0.0	1.0	False
1165.347	0.0	2Suff w/o Lat.	22	1165347	distinctively	1.0	0.0	False
1166.864	0.0	1Suff PseudoStemNW	14	1166864	appigental	0.0	1.0	False
1167.889	0.0	1Suff w/o Lat.	12	1167889	soulful	1.0	0.0	False
1169.056	0.0	1Suff w/o Lat.	12	1169056	profitable	1.0	0.0	False
1170.823	0.0	0Suff w/o Lat.	2	1170823	speed	1.0	0.0	False
1171.74	0.0	2Suff w/o Lat.	22	1171740	harmlessly	1.0	0.0	False
1173.074	0.0	1Suff w/ Lat.	11	1173074	mistaken	1.0	0.0	False
1174.099	0.0	2Suff RealStemNW	25	1174099	easery	0.0	0.0	True
1175.45	0.0	0Suff w/o Lat.	2	1175450	grace	1.0	n/a	False
1177.859	0.0	2Suff PseudoStemNW	24	1177859	prodfessively	0.0	1.0	False
1179.368	0.0	1Suff w/o Lat.	12	1179368	moisture	1.0	0.0	False
1180.785	0.0	0Suff w/o Lat.	2	1180785	protect	1.0	0.0	False
1182.143	0.0	2Suff PseudoStemNW	24	1182143	potarity	0.0	1.0	False
1183.644	0.0	2Suff Composite	23	1183644	amplification	1.0	0.0	False
1184.728	0.0	2Suff w/o Lat.	22	1184728	gleefully	1.0	0.0	False
1186.061	0.0	0Suff NW	4	1186061	mistile	0.0	1.0	False
1187.137	0.0	0Suff w/o Lat.	2	1187137	transit	1.0	0.0	False
1188.804	0.0	2Suff w/o Lat.	22	1188804	substantially	1.0	1.0	True
1190.163	0.0	0Suff NW	4	1190163	grame	0.0	0.0	True
1191.88	0.0	1Suff RealStemNW	15	1191880	painable	0.0	n/a	False
1194.272	0.0	0Suff NW	4	1194272	sork	0.0	1.0	False
1195.639	0.0	0Suff NW	4	1195639	eet	0.0	1.0	False
1196.556	0.0	2Suff w/o Lat.	22	1196556	thoughtfully	1.0	0.0	False
1197.715	0.0	2Suff PseudoStemNW	24	1197715	degorative	0.0	1.0	False
1198.682	0.0	2Suff w/o Lat.	22	1198682	poetical	1.0	0.0	False
1199.665	0.0	1Suff PseudoStemNW	14	1199665	eseretion	0.0	1.0	False
1200.783	0.0	1Suff PseudoStemNW	14	1200783	paskful	0.0	1.0	False
1201.699	0.0	2Suff PseudoStemNW	24	1201699	lenctionally	0.0	1.0	False
1203.167	0.0	0Suff w/ Lat.	1	1203167	affect	1.0	0.0	False
1204.609	0.0	1Suff w/o Lat.	12	1204609	adaptable	1.0	0.0	False
1205.876	0.0	0Suff NW	4	1205876	wroty	0.0	0.0	True
1206.959	0.0	1Suff w/o Lat.	12	1206959	considerate	1.0	n/a	False
1209.36	0.0	1Suff PseudoStemNW	14	1209360	aisless	0.0	1.0	False
1210.677	0.0	2Suff RealStemNW	25	1210677	characterional	0.0	1.0	False
1212.011	0.0	2Suff w/ Lat.	21	1212011	projectionist	1.0	1.0	True
1213.27	0.0	0Suff w/o Lat.	2	1213270	soul	1.0	n/a	False
1215.654	0.0	2Suff PseudoStemNW	24	1215654	steadthily	0.0	n/a	False
1218.054	0.0	0Suff w/o Lat.	2	1218054	drama	1.0	n/a	False
1220.464	0.0	2Suff w/o Lat.	22	1220464	moisturize	1.0	n/a	False
1222.864	0.0	0Suff w/o Lat.	2	1222864	develop	1.0	n/a	False
1225.248	0.0	2Suff w/ Lat.	21	1225248	mistakenly	1.0	n/a	False
1227.666	0.0	1Suff w/o Lat.	12	1227666	functional	1.0	0.0	False
1229.325	0.0	0Suff NW	4	1229325	rame	0.0	1.0	False
1230.533	0.0	1Suff PseudoStemNW	14	1230533	reration	0.0	1.0	False
1231.542	0.0	2Suff PseudoStemNW	24	1231542	orifadator	0.0	1.0	False
1232.542	0.0	0Suff w/o Lat.	2	1232542	peace	1.0	0.0	False
1233.476	0.0	2Suff w/o Lat.	22	1233476	speedily	1.0	0.0	False
1234.485	0.0	2Suff w/o Lat.	22	1234485	exhaustively	1.0	0.0	False
1235.71	0.0	0Suff NW	4	1235710	reut	0.0	1.0	False
1236.719	0.0	2Suff w/o Lat.	22	1236719	architectural	1.0	0.0	False
1238.344	0.0	0Suff w/ Lat.	1	1238344	concept	1.0	0.0	False
1239.386	0.0	2Suff w/o Lat.	22	1239386	protectionist	1.0	0.0	False
1240.987	0.0	0Suff NW	4	1240987	orifad	0.0	1.0	False
1242.037	0.0	2Suff RealStemNW	25	1242037	affirmatfully	0.0	0.0	True
1243.262	0.0	0Suff NW	4	1243262	prowert	0.0	1.0	False
1244.513	0.0	2Suff PseudoStemNW	24	1244513	concuchualize	0.0	1.0	False
1245.655	0.0	0Suff NW	4	1245655	chier	0.0	1.0	False
1246.972	0.0	2Suff RealStemNW	25	1246972	familierage	0.0	1.0	False
1248.089	0.0	0Suff NW	4	1248089	perburve	0.0	1.0	False
