onset	duration	trial_type	value	sample	stimulus	is_word	response	correct
29.035	0.0	2Suff w/o Lat.	22	29035	brokerage	1.0	1.0	True
30.486	0.0	1Suff RealStemNW	15	30486	merciable	0.0	1.0	False
32.886	0.0	1Suff w/o Lat.	12	32886	signify	1.0	0.0	False
33.82	0.0	2Suff w/o Lat.	22	33820	vaccination	1.0	0.0	False
34.854	0.0	1Suff w/o Lat.	12	34854	commercial	1.0	0.0	False
35.787	0.0	1Suff w/o Lat.	12	35787	stylist	1.0	0.0	False
36.712	0.0	0Suff w/o Lat.	2	36712	attract	1.0	0.0	False
37.621	0.0	2Suff w/ Lat.	21	37621	exclusiveness	1.0	0.0	False
38.721	0.0	0Suff w/o Lat.	2	38721	prefer	1.0	0.0	False
39.613	0.0	1Suff w/o Lat.	12	39613	critical	1.0	0.0	False
40.514	0.0	1Suff PseudoStemNW	14	40514	lokely	0.0	1.0	False
41.622	0.0	0Suff w/o Lat.	2	41622	symbol	1.0	0.0	False
42.598	0.0	2Suff w/o Lat.	22	42598	breathlessly	1.0	0.0	False
43.548	0.0	2Suff RealStemNW	25	43548	creatously	0.0	1.0	False
45.182	0.0	2Suff w/ Lat.	21	45182	composition	1.0	0.0	False
46.215	0.0	0Suff w/ Lat.	1	46215	provide	1.0	0.0	False
47.482	0.0	2Suff PseudoStemNW	24	47482	fortorately	0.0	1.0	False
48.775	0.0	0Suff NW	4	48775	inflise	0.0	1.0	False
49.917	0.0	0Suff NW	4	49917	blunk	0.0	1.0	False
51.4	0.0	2Suff w/o Lat.	22	51400	foolishness	1.0	0.0	False
52.826	0.0	2Suff w/o Lat.	22	52826	herbalist	1.0	1.0	True
54.426	0.0	2Suff PseudoStemNW	24	54426	healtily	0.0	n/a	False
56.819	0.0	0Suff w/o Lat.	2	56819	sense	1.0	0.0	False
57.752	0.0	0Suff w/ Lat.	1	57752	perfect	1.0	0.0	False
58.894	0.0	1Suff PseudoStemNW	14	58894	jokous	0.0	1.0	False
60.011	0.0	2Suff w/ Lat.	21	60011	expressionist	1.0	0.0	False
61.128	0.0	0Suff w/ Lat.	1	61128	explode	1.0	0.0	False
62.437	0.0	2Suff w/o Lat.	22	62437	industrialist	1.0	0.0	False
63.646	0.0	0Suff NW	4	63646	provace	0.0	0.0	True
65.346	0.0	1Suff w/o Lat.	12	65346	cyclic	1.0	0.0	False
66.505	0.0	2Suff Composite	23	66505	solipsistic	1.0	1.0	True
68.047	0.0	1Suff w/o Lat.	12	68047	comfortable	1.0	0.0	False
69.039	0.0	2Suff w/o Lat.	22	69039	continually	1.0	0.0	False
69.948	0.0	2Suff Composite	23	69948	probation	1.0	0.0	False
71.073	0.0	2Suff w/o Lat.	22	71073	uselessly	1.0	0.0	False
72.157	0.0	2Suff PseudoStemNW	24	72157	efforniveness	0.0	1.0	False
73.532	0.0	2Suff w/o Lat.	22	73532	fertilizer	1.0	0.0	False
74.524	0.0	1Suff w/o Lat.	12	74524	continuous	1.0	0.0	False
75.441	0.0	1Suff PseudoStemNW	14	75441	expredive	0.0	1.0	False
76.633	0.0	1Suff w/o Lat.	12	76633	comical	1.0	0.0	False
78.634	0.0	1Suff w/o Lat.	12	78634	joyous	1.0	0.0	False
79.651	0.0	1Suff RealStemNW	15	79651	perfectate	0.0	1.0	False
81.018	0.0	2Suff PseudoStemNW	24	81018	perfallionist	0.0	1.0	False
82.585	0.0	1Suff w/o Lat.	12	82585	modernize	1.0	0.0	False
84.102	0.0	0Suff w/o Lat.	2	84102	self	1.0	0.0	False
84.961	0.0	0Suff NW	4	84961	hett	0.0	1.0	False
86.003	0.0	0Suff w/o Lat.	2	86003	attend	1.0	0.0	False
86.87	0.0	1Suff w/o Lat.	12	86870	comparative	1.0	0.0	False
87.97	0.0	2Suff RealStemNW	25	87970	feverality	0.0	1.0	False
90.271	0.0	2Suff PseudoStemNW	24	90271	byvrical	0.0	n/a	False
92.663	0.0	2Suff RealStemNW	25	92663	alterlessly	0.0	0.0	True
93.872	0.0	2Suff w/ Lat.	21	93872	inspirational	1.0	0.0	False
94.847	0.0	0Suff w/o Lat.	2	94847	admire	1.0	0.0	False
95.731	0.0	1Suff PseudoStemNW	14	95731	precukable	0.0	1.0	False
97.581	0.0	2Suff RealStemNW	25	97581	clinicical	0.0	0.0	True
98.548	0.0	1Suff w/o Lat.	12	98548	dreadful	1.0	0.0	False
100.115	0.0	1Suff RealStemNW	15	100115	momentish	0.0	1.0	False
102.174	0.0	0Suff w/o Lat.	2	102174	argue	1.0	0.0	False
103.0	0.0	2Suff w/o Lat.	22	103000	brutality	1.0	0.0	False
103.925	0.0	2Suff PseudoStemNW	24	103925	coyimally	0.0	1.0	False
105.109	0.0	1Suff w/o Lat.	12	105109	truthful	1.0	0.0	False
106.042	0.0	2Suff PseudoStemNW	24	106042	arbumentative	0.0	1.0	False
107.334	0.0	2Suff w/o Lat.	22	107334	prophetically	1.0	0.0	False
108.643	0.0	1Suff PseudoStemNW	14	108643	movectize	0.0	1.0	False
110.744	0.0	1Suff w/o Lat.	12	110744	sensual	1.0	0.0	False
111.669	0.0	0Suff NW	4	111669	cheher	0.0	1.0	False
112.744	0.0	2Suff PseudoStemNW	24	112744	hettlessness	0.0	1.0	False
113.978	0.0	0Suff w/o Lat.	2	113978	lone	1.0	0.0	False
115.462	0.0	1Suff w/o Lat.	12	115462	feverish	1.0	0.0	False
116.729	0.0	2Suff w/o Lat.	22	116729	tirelessly	1.0	0.0	False
117.746	0.0	2Suff RealStemNW	25	117746	useiously	0.0	1.0	False
118.929	0.0	2Suff w/o Lat.	22	118929	creatively	1.0	0.0	False
119.88	0.0	2Suff w/o Lat.	22	119880	joyously	1.0	0.0	False
120.755	0.0	1Suff w/o Lat.	12	120755	masterful	1.0	0.0	False
121.705	0.0	0Suff NW	4	121705	retend	0.0	1.0	False
122.897	0.0	2Suff w/o Lat.	22	122897	commercialize	1.0	0.0	False
123.923	0.0	0Suff NW	4	123923	arbub	0.0	0.0	True
124.823	0.0	2Suff PseudoStemNW	24	124823	hettfully	0.0	1.0	False
125.915	0.0	2Suff RealStemNW	25	125915	sensfulness	0.0	n/a	False
128.324	0.0	2Suff PseudoStemNW	24	128324	effornively	0.0	1.0	False
129.558	0.0	2Suff PseudoStemNW	24	129558	excrodively	0.0	1.0	False
131.233	0.0	0Suff NW	4	131233	nolfs	0.0	1.0	False
132.359	0.0	2Suff w/ Lat.	21	132359	conclusively	1.0	0.0	False
133.417	0.0	0Suff NW	4	133417	perfall	0.0	1.0	False
134.651	0.0	0Suff w/o Lat.	2	134651	fertile	1.0	0.0	False
135.643	0.0	1Suff RealStemNW	15	135643	powerive	0.0	1.0	False
136.802	0.0	0Suff NW	4	136802	conspode	0.0	1.0	False
137.86	0.0	0Suff NW	4	137860	adnise	0.0	1.0	False
138.861	0.0	0Suff NW	4	138861	loke	0.0	1.0	False
139.994	0.0	0Suff NW	4	139994	lecer	0.0	1.0	False
141.02	0.0	2Suff w/ Lat.	21	141020	institutional	1.0	0.0	False
142.045	0.0	1Suff w/o Lat.	12	142045	procedure	1.0	0.0	False
142.962	0.0	1Suff RealStemNW	15	142962	noticeless	0.0	0.0	True
143.829	0.0	2Suff w/o Lat.	22	143829	needlessly	1.0	0.0	False
145.779	0.0	2Suff w/o Lat.	22	145779	activity	1.0	0.0	False
146.888	0.0	2Suff PseudoStemNW	24	146888	spippery	0.0	1.0	False
148.188	0.0	0Suff w/o Lat.	2	148188	tradition	1.0	0.0	False
149.564	0.0	1Suff w/o Lat.	12	149564	creative	1.0	0.0	False
150.689	0.0	2Suff PseudoStemNW	24	150689	eschessionist	0.0	1.0	False
151.765	0.0	1Suff w/o Lat.	12	151765	helpless	1.0	0.0	False
152.757	0.0	2Suff w/o Lat.	22	152757	feverishly	1.0	0.0	False
153.849	0.0	2Suff w/o Lat.	22	153849	justifiable	1.0	0.0	False
154.941	0.0	1Suff w/o Lat.	12	154941	momentary	1.0	0.0	False
156.091	0.0	2Suff w/o Lat.	22	156091	culturally	1.0	0.0	False
157.266	0.0	2Suff PseudoStemNW	24	157266	soripsistic	0.0	1.0	False
158.433	0.0	2Suff PseudoStemNW	24	158433	kibsliness	0.0	1.0	False
159.467	0.0	0Suff NW	4	159467	lums	0.0	1.0	False
160.442	0.0	0Suff NW	4	160442	coatage	0.0	1.0	False
161.493	0.0	0Suff NW	4	161493	clade	0.0	1.0	False
162.418	0.0	1Suff w/o Lat.	12	162418	righteous	1.0	0.0	False
163.468	0.0	2Suff w/o Lat.	22	163468	passionately	1.0	0.0	False
164.377	0.0	1Suff w/o Lat.	12	164377	tireless	1.0	0.0	False
165.227	0.0	2Suff Composite	23	165227	penalization	1.0	0.0	False
166.836	0.0	2Suff w/ Lat.	21	166836	excessively	1.0	0.0	False
167.811	0.0	2Suff w/o Lat.	22	167811	excellently	1.0	0.0	False
169.02	0.0	0Suff w/o Lat.	2	169020	mourn	1.0	0.0	False
169.962	0.0	1Suff w/o Lat.	12	169962	symbolic	1.0	0.0	False
170.779	0.0	1Suff w/o Lat.	12	170779	active	1.0	0.0	False
171.696	0.0	0Suff NW	4	171696	podent	0.0	1.0	False
178.915	0.0	2Suff RealStemNW	25	178915	explosfully	0.0	1.0	False
180.273	0.0	2Suff Composite	23	180273	annexation	1.0	0.0	False
181.874	0.0	2Suff RealStemNW	25	181874	senseiously	0.0	1.0	False
183.058	0.0	2Suff RealStemNW	25	183058	selfiveness	0.0	1.0	False
184.241	0.0	2Suff RealStemNW	25	184241	hierarchally	0.0	0.0	True
186.467	0.0	2Suff w/o Lat.	22	186467	attractively	1.0	0.0	False
187.642	0.0	0Suff NW	4	187642	cutfure	0.0	1.0	False
188.751	0.0	2Suff PseudoStemNW	24	188751	cladsification	0.0	1.0	False
189.96	0.0	0Suff NW	4	189960	luds	0.0	1.0	False
190.91	0.0	0Suff NW	4	190910	kibs	0.0	1.0	False
192.094	0.0	0Suff w/o Lat.	2	192094	mercy	1.0	0.0	False
193.061	0.0	1Suff PseudoStemNW	14	193061	eschession	0.0	1.0	False
194.078	0.0	0Suff w/o Lat.	2	194078	custom	1.0	0.0	False
195.061	0.0	0Suff w/o Lat.	2	195061	tactic	1.0	0.0	False
196.087	0.0	2Suff RealStemNW	25	196087	fertilability	0.0	1.0	False
197.387	0.0	0Suff NW	4	197387	rebuin	0.0	1.0	False
198.437	0.0	1Suff RealStemNW	15	198437	kinden	0.0	1.0	False
199.804	0.0	1Suff w/ Lat.	11	199804	effective	1.0	0.0	False
200.68	0.0	2Suff w/o Lat.	22	200680	preferably	1.0	0.0	False
201.73	0.0	2Suff w/ Lat.	21	201730	provisional	1.0	0.0	False
202.839	0.0	2Suff w/o Lat.	22	202839	respectively	1.0	0.0	False
203.756	0.0	2Suff PseudoStemNW	24	203756	andezation	0.0	1.0	False
204.806	0.0	2Suff PseudoStemNW	24	204806	flivituality	0.0	1.0	False
205.873	0.0	0Suff NW	4	205873	flivit	0.0	1.0	False
206.865	0.0	0Suff w/o Lat.	2	206865	master	1.0	0.0	False
207.682	0.0	1Suff w/o Lat.	12	207682	helpful	1.0	0.0	False
208.49	0.0	2Suff w/o Lat.	22	208490	actively	1.0	0.0	False
209.291	0.0	2Suff w/ Lat.	21	209291	expressionism	1.0	0.0	False
210.174	0.0	2Suff Composite	23	210174	classification	1.0	0.0	False
211.224	0.0	1Suff PseudoStemNW	14	211224	cuppomary	0.0	1.0	False
212.3	0.0	2Suff w/o Lat.	22	212300	usefulness	1.0	0.0	False
213.258	0.0	1Suff PseudoStemNW	14	213258	arbument	0.0	1.0	False
214.275	0.0	2Suff w/o Lat.	22	214275	significance	1.0	0.0	False
215.292	0.0	0Suff NW	4	215292	precuke	0.0	1.0	False
216.409	0.0	1Suff PseudoStemNW	14	216409	exfallent	0.0	1.0	False
217.301	0.0	2Suff w/o Lat.	22	217301	significant	1.0	0.0	False
218.293	0.0	2Suff w/o Lat.	22	218293	attentively	1.0	0.0	False
219.435	0.0	2Suff PseudoStemNW	24	219435	murpifully	0.0	1.0	False
220.536	0.0	2Suff PseudoStemNW	24	220536	mymbolically	0.0	1.0	False
221.703	0.0	1Suff RealStemNW	15	221703	composian	0.0	1.0	False
222.686	0.0	2Suff PseudoStemNW	24	222686	cheherably	0.0	1.0	False
223.603	0.0	2Suff PseudoStemNW	24	223603	patudation	0.0	1.0	False
224.687	0.0	1Suff RealStemNW	15	224687	selectful	0.0	0.0	True
226.713	0.0	1Suff PseudoStemNW	14	226713	ceantless	0.0	1.0	False
227.655	0.0	2Suff PseudoStemNW	24	227655	selvuality	0.0	1.0	False
228.797	0.0	2Suff RealStemNW	25	228797	tacticical	0.0	1.0	False
230.039	0.0	1Suff PseudoStemNW	14	230039	booftiful	0.0	1.0	False
231.114	0.0	2Suff RealStemNW	25	231114	criticical	0.0	1.0	False
233.156	0.0	0Suff w/o Lat.	2	233156	care	1.0	0.0	False
234.107	0.0	0Suff NW	4	234107	pipson	0.0	1.0	False
235.082	0.0	2Suff RealStemNW	25	235082	excessfully	0.0	1.0	False
237.074	0.0	0Suff w/o Lat.	2	237074	fortune	1.0	0.0	False
238.124	0.0	2Suff RealStemNW	25	238124	regionical	0.0	1.0	False
239.467	0.0	2Suff w/o Lat.	22	239467	falsification	1.0	0.0	False
240.859	0.0	2Suff PseudoStemNW	24	240859	cronitionally	0.0	1.0	False
242.059	0.0	2Suff RealStemNW	25	242059	attentfully	0.0	1.0	False
244.401	0.0	0Suff w/o Lat.	2	244401	collect	1.0	0.0	False
245.318	0.0	2Suff Composite	23	245318	whimsical	1.0	0.0	False
246.444	0.0	0Suff w/o Lat.	2	246444	joy	1.0	0.0	False
247.386	0.0	2Suff w/ Lat.	21	247386	effectively	1.0	0.0	False
248.286	0.0	1Suff RealStemNW	15	248286	nationic	0.0	1.0	False
249.428	0.0	2Suff w/o Lat.	22	249428	foolishly	1.0	0.0	False
250.537	0.0	1Suff w/o Lat.	12	250537	measurable	1.0	0.0	False
251.479	0.0	0Suff NW	4	251479	gried	0.0	1.0	False
252.754	0.0	0Suff NW	4	252754	freat	0.0	1.0	False
253.896	0.0	1Suff w/o Lat.	12	253896	existence	1.0	0.0	False
254.996	0.0	2Suff w/o Lat.	22	254996	drunkenness	1.0	0.0	False
256.772	0.0	0Suff w/o Lat.	2	256772	confide	1.0	0.0	False
257.939	0.0	2Suff w/o Lat.	22	257939	luckily	1.0	0.0	False
258.756	0.0	2Suff Composite	23	258756	nullification	1.0	n/a	False
261.157	0.0	2Suff RealStemNW	25	261157	intentality	0.0	1.0	False
263.391	0.0	2Suff w/o Lat.	22	263391	civilization	1.0	0.0	False
264.383	0.0	2Suff w/o Lat.	22	264383	fruitlessly	1.0	1.0	True
265.941	0.0	1Suff w/o Lat.	12	265941	spiritual	1.0	0.0	False
266.858	0.0	2Suff w/o Lat.	22	266858	sensibility	1.0	0.0	False
267.867	0.0	1Suff PseudoStemNW	14	267867	selvual	0.0	1.0	False
268.926	0.0	2Suff w/o Lat.	22	268926	procedural	1.0	0.0	False
270.209	0.0	0Suff NW	4	270209	byvre	0.0	1.0	False
271.268	0.0	2Suff RealStemNW	25	271268	careiousness	0.0	1.0	False
272.543	0.0	2Suff w/o Lat.	22	272543	regionally	1.0	0.0	False
273.619	0.0	2Suff w/o Lat.	22	273619	loneliness	1.0	0.0	False
274.469	0.0	1Suff PseudoStemNW	14	274469	mymbolic	0.0	1.0	False
275.503	0.0	1Suff w/ Lat.	11	275503	exception	1.0	0.0	False
276.436	0.0	2Suff w/o Lat.	22	276436	stylistic	1.0	0.0	False
277.42	0.0	1Suff w/o Lat.	12	277420	courageous	1.0	0.0	False
278.604	0.0	1Suff RealStemNW	15	278604	institutate	0.0	1.0	False
280.196	0.0	0Suff NW	4	280196	contitum	0.0	1.0	False
282.113	0.0	2Suff Composite	23	282113	vulgarization	1.0	0.0	False
284.272	0.0	2Suff w/ Lat.	21	284272	intentional	1.0	0.0	False
286.173	0.0	0Suff w/o Lat.	2	286173	prophet	1.0	0.0	False
287.106	0.0	1Suff w/o Lat.	12	287106	senseless	1.0	0.0	False
287.99	0.0	2Suff w/o Lat.	22	287990	selectivity	1.0	0.0	False
288.907	0.0	2Suff w/o Lat.	22	288907	variously	1.0	0.0	False
289.874	0.0	0Suff NW	4	289874	orn	0.0	0.0	True
291.474	0.0	0Suff NW	4	291474	recrern	0.0	1.0	False
292.825	0.0	0Suff w/o Lat.	2	292825	just	1.0	0.0	False
293.783	0.0	0Suff w/o Lat.	2	293783	need	1.0	0.0	False
294.6	0.0	2Suff RealStemNW	25	294600	nationantly	0.0	1.0	False
296.401	0.0	2Suff w/o Lat.	22	296401	fearfully	1.0	0.0	False
297.626	0.0	2Suff w/o Lat.	22	297626	masterfully	1.0	1.0	True
299.56	0.0	0Suff w/o Lat.	2	299560	module	1.0	0.0	False
301.027	0.0	2Suff w/o Lat.	22	301027	spiritually	1.0	0.0	False
301.936	0.0	1Suff PseudoStemNW	14	301936	prosodure	0.0	1.0	False
303.236	0.0	1Suff RealStemNW	15	303236	helpive	0.0	1.0	False
304.32	0.0	0Suff NW	4	304320	brole	0.0	1.0	False
305.312	0.0	1Suff PseudoStemNW	14	305312	bleadful	0.0	1.0	False
306.295	0.0	2Suff w/o Lat.	22	306295	magically	1.0	0.0	False
307.321	0.0	1Suff PseudoStemNW	14	307321	coatageous	0.0	1.0	False
308.663	0.0	0Suff w/o Lat.	2	308663	fool	1.0	0.0	False
309.546	0.0	2Suff Composite	23	309546	sensation	1.0	0.0	False
310.572	0.0	0Suff w/o Lat.	2	310572	fever	1.0	0.0	False
311.505	0.0	1Suff PseudoStemNW	14	311505	lumsy	0.0	1.0	False
312.664	0.0	1Suff w/o Lat.	12	312664	variable	1.0	0.0	False
313.614	0.0	2Suff w/o Lat.	22	313614	secondarily	1.0	n/a	False
315.998	0.0	1Suff w/o Lat.	12	315998	prophetic	1.0	0.0	False
316.924	0.0	2Suff PseudoStemNW	24	316924	retendlessly	0.0	1.0	False
318.074	0.0	0Suff NW	4	318074	pimer	0.0	1.0	False
319.299	0.0	0Suff NW	4	319299	mourd	0.0	1.0	False
320.525	0.0	1Suff w/o Lat.	12	320525	personal	1.0	0.0	False
325.06	0.0	2Suff PseudoStemNW	24	325060	shactener	0.0	1.0	False
326.018	0.0	2Suff RealStemNW	25	326018	loneionist	0.0	1.0	False
327.052	0.0	2Suff PseudoStemNW	24	327052	comberatively	0.0	1.0	False
328.611	0.0	1Suff w/ Lat.	11	328611	objection	1.0	0.0	False
329.728	0.0	1Suff w/o Lat.	12	329728	selfless	1.0	0.0	False
330.811	0.0	2Suff PseudoStemNW	24	330811	herfalist	0.0	1.0	False
331.795	0.0	2Suff w/o Lat.	22	331795	commercialism	1.0	0.0	False
332.779	0.0	1Suff RealStemNW	15	332779	mournive	0.0	1.0	False
333.929	0.0	2Suff PseudoStemNW	24	333929	comborition	0.0	1.0	False
334.996	0.0	1Suff RealStemNW	15	334996	needable	0.0	1.0	False
336.046	0.0	2Suff PseudoStemNW	24	336046	murpilessly	0.0	1.0	False
337.397	0.0	1Suff PseudoStemNW	14	337397	mocondary	0.0	1.0	False
338.697	0.0	1Suff w/o Lat.	12	338697	customary	1.0	0.0	False
340.081	0.0	1Suff PseudoStemNW	14	340081	obwertion	0.0	1.0	False
341.189	0.0	2Suff Composite	23	341189	maturation	1.0	1.0	True
342.873	0.0	2Suff RealStemNW	25	342873	ownmental	0.0	1.0	False
344.407	0.0	0Suff w/o Lat.	2	344407	moment	1.0	0.0	False
345.324	0.0	2Suff PseudoStemNW	24	345324	blunkenness	0.0	n/a	False
347.716	0.0	2Suff PseudoStemNW	24	347716	janiability	0.0	1.0	False
348.783	0.0	1Suff w/ Lat.	11	348783	institution	1.0	0.0	False
349.742	0.0	2Suff PseudoStemNW	24	349742	paragewical	0.0	1.0	False
350.734	0.0	0Suff w/o Lat.	2	350734	kind	1.0	0.0	False
351.534	0.0	2Suff RealStemNW	25	351534	identally	0.0	1.0	False
353.26	0.0	2Suff w/o Lat.	22	353260	commercially	1.0	0.0	False
354.294	0.0	0Suff w/o Lat.	2	354294	act	1.0	0.0	False
355.21	0.0	2Suff RealStemNW	25	355210	lustery	0.0	1.0	False
356.728	0.0	1Suff PseudoStemNW	14	356728	broler	0.0	1.0	False
357.686	0.0	0Suff NW	4	357686	boofty	0.0	1.0	False
358.745	0.0	1Suff PseudoStemNW	14	358745	janiable	0.0	1.0	False
360.445	0.0	1Suff PseudoStemNW	14	360445	comburer	0.0	1.0	False
361.629	0.0	1Suff PseudoStemNW	14	361629	gunderful	0.0	1.0	False
363.021	0.0	0Suff w/o Lat.	2	363021	spirit	1.0	0.0	False
364.03	0.0	0Suff w/o Lat.	2	364030	cause	1.0	0.0	False
364.955	0.0	1Suff w/o Lat.	12	364955	vaccinate	1.0	0.0	False
365.939	0.0	2Suff PseudoStemNW	24	365939	seetably	0.0	1.0	False
367.056	0.0	0Suff NW	4	367056	comfern	0.0	1.0	False
368.164	0.0	0Suff NW	4	368164	jist	0.0	1.0	False
369.073	0.0	2Suff w/o Lat.	22	369073	measurably	1.0	0.0	False
370.198	0.0	0Suff w/o Lat.	2	370198	fear	1.0	0.0	False
371.015	0.0	2Suff RealStemNW	25	371015	civilability	0.0	1.0	False
373.416	0.0	2Suff w/o Lat.	22	373416	comparatively	1.0	0.0	False
374.783	0.0	2Suff w/o Lat.	22	374783	personality	1.0	0.0	False
376.134	0.0	1Suff PseudoStemNW	14	376134	darberous	0.0	1.0	False
377.234	0.0	2Suff RealStemNW	25	377234	valufully	0.0	1.0	False
378.493	0.0	1Suff w/o Lat.	12	378493	wonderful	1.0	0.0	False
379.401	0.0	1Suff w/o Lat.	12	379401	collective	1.0	0.0	False
380.26	0.0	2Suff w/o Lat.	22	380260	fertilization	1.0	0.0	False
381.227	0.0	2Suff PseudoStemNW	24	381227	onwertionable	0.0	1.0	False
382.444	0.0	1Suff PseudoStemNW	14	382444	orner	0.0	1.0	False
383.619	0.0	2Suff PseudoStemNW	24	383619	fipitation	0.0	1.0	False
384.661	0.0	0Suff w/o Lat.	2	384661	compare	1.0	0.0	False
385.636	0.0	0Suff NW	4	385636	blead	0.0	1.0	False
386.879	0.0	2Suff Composite	23	386879	farcical	1.0	1.0	True
387.987	0.0	1Suff w/o Lat.	12	387987	careless	1.0	0.0	False
389.004	0.0	1Suff PseudoStemNW	14	389004	simnify	0.0	1.0	False
390.213	0.0	1Suff w/o Lat.	12	390213	passionate	1.0	0.0	False
391.255	0.0	2Suff Composite	23	391255	degradation	1.0	0.0	False
392.464	0.0	1Suff RealStemNW	15	392464	careive	0.0	1.0	False
393.647	0.0	0Suff w/ Lat.	1	393647	object	1.0	0.0	False
394.531	0.0	0Suff w/ Lat.	1	394531	exclude	1.0	0.0	False
395.648	0.0	2Suff PseudoStemNW	24	395648	sarumentally	0.0	1.0	False
396.707	0.0	1Suff w/o Lat.	12	396707	hasty	1.0	0.0	False
397.799	0.0	2Suff PseudoStemNW	24	397799	connurtivity	0.0	1.0	False
398.791	0.0	0Suff NW	4	398791	onnend	0.0	1.0	False
399.749	0.0	1Suff RealStemNW	15	399749	tacticic	0.0	1.0	False
401.05	0.0	2Suff RealStemNW	25	401050	synchronilessly	0.0	1.0	False
402.592	0.0	0Suff w/o Lat.	2	402592	effort	1.0	0.0	False
403.55	0.0	1Suff PseudoStemNW	14	403550	seetable	0.0	1.0	False
404.542	0.0	0Suff NW	4	404542	mympol	0.0	1.0	False
405.476	0.0	0Suff NW	4	405476	cank	0.0	1.0	False
406.518	0.0	2Suff Composite	23	406518	computation	1.0	1.0	True
407.56	0.0	2Suff w/ Lat.	21	407560	conductivity	1.0	0.0	False
409.761	0.0	1Suff w/o Lat.	12	409761	kindly	1.0	0.0	False
410.586	0.0	0Suff NW	4	410586	cronition	0.0	1.0	False
411.628	0.0	1Suff PseudoStemNW	14	411628	rebuinal	0.0	1.0	False
412.57	0.0	1Suff RealStemNW	15	412570	admirless	0.0	1.0	False
413.987	0.0	1Suff w/o Lat.	12	413987	causal	1.0	0.0	False
414.946	0.0	1Suff RealStemNW	15	414946	comparatful	0.0	1.0	False
417.004	0.0	2Suff RealStemNW	25	417004	prophetionist	0.0	1.0	False
418.588	0.0	0Suff NW	4	418588	faice	0.0	1.0	False
419.555	0.0	1Suff RealStemNW	15	419555	confidious	0.0	n/a	False
421.948	0.0	1Suff w/o Lat.	12	421948	brutal	1.0	0.0	False
422.881	0.0	2Suff w/o Lat.	22	422881	artfully	1.0	1.0	True
425.057	0.0	2Suff PseudoStemNW	24	425057	inglinitional	0.0	1.0	False
426.249	0.0	2Suff RealStemNW	25	426249	admirical	0.0	1.0	False
427.741	0.0	1Suff w/o Lat.	12	427741	instinctive	1.0	0.0	False
428.816	0.0	0Suff w/o Lat.	2	428816	compute	1.0	0.0	False
429.842	0.0	2Suff w/ Lat.	21	429842	explosively	1.0	0.0	False
430.959	0.0	0Suff w/o Lat.	2	430959	instinct	1.0	0.0	False
431.926	0.0	2Suff PseudoStemNW	24	431926	cutfurally	0.0	1.0	False
433.043	0.0	2Suff RealStemNW	25	433043	momentantly	0.0	1.0	False
435.343	0.0	2Suff RealStemNW	25	435343	noticeator	0.0	1.0	False
436.452	0.0	1Suff w/o Lat.	12	436452	noticeable	1.0	0.0	False
437.694	0.0	1Suff w/o Lat.	12	437694	attentive	1.0	0.0	False
438.803	0.0	0Suff w/ Lat.	1	438803	presume	1.0	0.0	False
439.962	0.0	0Suff NW	4	439962	sothod	0.0	1.0	False
440.937	0.0	1Suff w/o Lat.	12	440937	fortunate	1.0	0.0	False
442.437	0.0	1Suff RealStemNW	15	442437	victimist	0.0	1.0	False
443.929	0.0	1Suff w/ Lat.	11	443929	objective	1.0	0.0	False
444.871	0.0	0Suff NW	4	444871	lurtile	0.0	1.0	False
445.888	0.0	2Suff w/o Lat.	22	445888	spirituality	1.0	0.0	False
446.83	0.0	0Suff w/o Lat.	2	446830	person	1.0	0.0	False
447.731	0.0	2Suff w/ Lat.	21	447731	effectiveness	1.0	0.0	False
448.673	0.0	2Suff RealStemNW	25	448673	classally	0.0	0.0	True
449.539	0.0	1Suff RealStemNW	15	449539	traditionic	0.0	1.0	False
450.973	0.0	2Suff PseudoStemNW	24	450973	trithfully	0.0	1.0	False
452.09	0.0	2Suff w/o Lat.	22	452090	spiritualism	1.0	0.0	False
453.441	0.0	2Suff w/o Lat.	22	453441	tactically	1.0	0.0	False
454.533	0.0	2Suff RealStemNW	25	454533	breathiously	0.0	1.0	False
455.625	0.0	2Suff w/o Lat.	22	455625	creativity	1.0	0.0	False
456.633	0.0	2Suff PseudoStemNW	24	456633	flivitually	0.0	1.0	False
457.925	0.0	2Suff RealStemNW	25	457925	artional	0.0	1.0	False
459.009	0.0	2Suff RealStemNW	25	459009	stylional	0.0	1.0	False
460.193	0.0	1Suff w/o Lat.	12	460193	assertive	1.0	0.0	False
461.343	0.0	1Suff PseudoStemNW	14	461343	coyimal	0.0	1.0	False
462.393	0.0	0Suff NW	4	462393	copperce	0.0	1.0	False
463.377	0.0	0Suff w/ Lat.	1	463377	excess	1.0	0.0	False
464.394	0.0	1Suff w/o Lat.	12	464394	hearty	1.0	0.0	False
465.811	0.0	2Suff PseudoStemNW	24	465811	excrodiveness	0.0	1.0	False
477.398	0.0	2Suff Composite	23	477398	victimization	1.0	0.0	False
478.573	0.0	0Suff NW	4	478573	exfal	0.0	1.0	False
479.624	0.0	2Suff PseudoStemNW	24	479624	awnfully	0.0	1.0	False
480.566	0.0	2Suff w/o Lat.	22	480566	ceaselessly	1.0	0.0	False
482.325	0.0	2Suff PseudoStemNW	24	482325	perfallionism	0.0	1.0	False
483.442	0.0	2Suff w/o Lat.	22	483442	classical	1.0	0.0	False
484.692	0.0	0Suff NW	4	484692	traphet	0.0	1.0	False
485.934	0.0	1Suff w/o Lat.	12	485934	justify	1.0	0.0	False
486.901	0.0	2Suff w/o Lat.	22	486901	ownership	1.0	0.0	False
487.91	0.0	1Suff w/o Lat.	12	487910	greedy	1.0	0.0	False
488.985	0.0	2Suff w/o Lat.	22	488985	joyfully	1.0	0.0	False
489.86	0.0	0Suff NW	4	489860	atstart	0.0	1.0	False
490.919	0.0	1Suff PseudoStemNW	14	490919	cutfural	0.0	1.0	False
491.928	0.0	2Suff PseudoStemNW	24	491928	griedily	0.0	1.0	False
493.37	0.0	1Suff w/o Lat.	12	493370	admirable	1.0	0.0	False
494.362	0.0	0Suff w/o Lat.	2	494362	civil	1.0	0.0	False
495.329	0.0	2Suff PseudoStemNW	24	495329	navounality	0.0	1.0	False
496.337	0.0	1Suff RealStemNW	15	496337	falsant	0.0	1.0	False
497.313	0.0	1Suff RealStemNW	15	497313	abolitate	0.0	1.0	False
498.304	0.0	2Suff PseudoStemNW	24	498304	movectization	0.0	1.0	False
499.288	0.0	1Suff w/o Lat.	12	499288	owner	1.0	0.0	False
500.188	0.0	2Suff RealStemNW	25	500188	neediously	0.0	1.0	False
501.497	0.0	0Suff NW	4	501497	combere	0.0	1.0	False
502.439	0.0	0Suff w/o Lat.	2	502439	right	1.0	0.0	False
503.281	0.0	2Suff w/o Lat.	22	503281	selectively	1.0	0.0	False
505.157	0.0	1Suff PseudoStemNW	14	505157	pipsonal	0.0	1.0	False
506.124	0.0	2Suff RealStemNW	25	506124	noisery	0.0	1.0	False
507.274	0.0	0Suff w/ Lat.	1	507274	except	1.0	0.0	False
508.341	0.0	0Suff w/o Lat.	2	508341	cycle	1.0	0.0	False
509.174	0.0	0Suff w/o Lat.	2	509174	dread	1.0	0.0	False
510.383	0.0	2Suff w/o Lat.	22	510383	argumentative	1.0	0.0	False
511.65	0.0	0Suff w/o Lat.	2	511650	victim	1.0	0.0	False
512.567	0.0	1Suff RealStemNW	15	512567	causic	0.0	1.0	False
514.426	0.0	2Suff w/o Lat.	22	514426	comfortably	1.0	0.0	False
515.36	0.0	2Suff RealStemNW	25	515360	victimilessly	0.0	1.0	False
516.585	0.0	0Suff w/o Lat.	2	516585	lust	1.0	0.0	False
517.61	0.0	0Suff NW	4	517610	greard	0.0	1.0	False
518.702	0.0	0Suff NW	4	518702	brealt	0.0	1.0	False
519.786	0.0	1Suff RealStemNW	15	519786	purant	0.0	1.0	False
520.77	0.0	2Suff Composite	23	520770	orientation	1.0	0.0	False
521.77	0.0	2Suff RealStemNW	25	521770	exceptality	0.0	0.0	True
522.754	0.0	0Suff w/ Lat.	1	522754	effect	1.0	0.0	False
524.037	0.0	1Suff w/ Lat.	11	524037	intention	1.0	0.0	False
524.929	0.0	2Suff RealStemNW	25	524929	computitely	0.0	1.0	False
526.905	0.0	1Suff RealStemNW	15	526905	classal	0.0	0.0	True
527.855	0.0	0Suff w/o Lat.	2	527855	tire	1.0	0.0	False
528.664	0.0	2Suff RealStemNW	25	528664	nullifilessly	0.0	1.0	False
529.981	0.0	1Suff w/o Lat.	12	529981	drunken	1.0	0.0	False
530.898	0.0	1Suff RealStemNW	15	530898	foolory	0.0	1.0	False
531.848	0.0	2Suff Composite	23	531848	filtration	1.0	0.0	False
533.299	0.0	2Suff RealStemNW	25	533299	penalilessly	0.0	n/a	False
535.691	0.0	0Suff w/o Lat.	2	535691	breath	1.0	0.0	False
536.616	0.0	2Suff PseudoStemNW	24	536616	procation	0.0	0.0	True
537.542	0.0	1Suff w/o Lat.	12	537542	optical	1.0	0.0	False
538.684	0.0	0Suff w/o Lat.	2	538684	commerce	1.0	0.0	False
539.659	0.0	1Suff w/o Lat.	12	539659	excellent	1.0	0.0	False
540.851	0.0	2Suff RealStemNW	25	540851	commerceantly	0.0	1.0	False
542.56	0.0	0Suff NW	4	542560	ewils	0.0	1.0	False
543.485	0.0	0Suff NW	4	543485	haint	0.0	1.0	False
544.594	0.0	1Suff w/o Lat.	12	544594	effortless	1.0	0.0	False
545.627	0.0	1Suff w/o Lat.	12	545627	foolish	1.0	0.0	False
546.519	0.0	1Suff w/o Lat.	12	546519	dangerous	1.0	0.0	False
547.528	0.0	1Suff PseudoStemNW	14	547528	contituous	0.0	0.0	True
549.704	0.0	2Suff w/o Lat.	22	549704	monumentally	1.0	0.0	False
550.771	0.0	1Suff RealStemNW	15	550771	fertilist	0.0	1.0	False
553.121	0.0	1Suff RealStemNW	15	553121	creatful	0.0	1.0	False
554.463	0.0	1Suff RealStemNW	15	554463	legalist	0.0	n/a	False
556.873	0.0	0Suff w/ Lat.	1	556873	intend	1.0	0.0	False
557.823	0.0	2Suff RealStemNW	25	557823	variality	0.0	1.0	False
560.199	0.0	1Suff PseudoStemNW	14	560199	shacten	0.0	1.0	False
561.207	0.0	1Suff PseudoStemNW	14	561207	onnention	0.0	1.0	False
562.207	0.0	2Suff w/o Lat.	22	562207	humanistic	1.0	0.0	False
563.475	0.0	2Suff w/o Lat.	22	563475	beautifully	1.0	0.0	False
564.316	0.0	1Suff RealStemNW	15	564316	humanify	0.0	0.0	True
565.2	0.0	1Suff w/o Lat.	12	565200	preferable	1.0	0.0	False
566.4	0.0	0Suff w/o Lat.	2	566400	optic	1.0	0.0	False
567.409	0.0	2Suff w/o Lat.	22	567409	noisily	1.0	0.0	False
568.368	0.0	1Suff PseudoStemNW	14	568368	franical	0.0	0.0	True
569.751	0.0	2Suff RealStemNW	25	569751	excellalism	0.0	1.0	False
570.885	0.0	0Suff NW	4	570885	tedal	0.0	1.0	False
571.869	0.0	0Suff w/ Lat.	1	571869	compose	1.0	0.0	False
573.011	0.0	1Suff RealStemNW	15	573011	fortunion	0.0	1.0	False
574.194	0.0	1Suff w/o Lat.	12	574194	ceaseless	1.0	0.0	False
575.211	0.0	0Suff w/o Lat.	2	575211	pure	1.0	0.0	False
576.095	0.0	1Suff PseudoStemNW	14	576095	crerical	0.0	1.0	False
577.179	0.0	0Suff NW	4	577179	exfapt	0.0	1.0	False
578.212	0.0	0Suff w/o Lat.	2	578212	legal	1.0	0.0	False
579.146	0.0	2Suff RealStemNW	25	579146	embarkfully	0.0	1.0	False
581.305	0.0	1Suff RealStemNW	15	581305	passionion	0.0	1.0	False
582.63	0.0	1Suff w/o Lat.	12	582630	joyful	1.0	0.0	False
583.531	0.0	1Suff PseudoStemNW	14	583531	esressive	0.0	1.0	False
584.581	0.0	2Suff PseudoStemNW	24	584581	colliffively	0.0	1.0	False
585.823	0.0	0Suff w/o Lat.	2	585823	vaccine	1.0	0.0	False
586.857	0.0	1Suff PseudoStemNW	14	586857	allendive	0.0	1.0	False
588.107	0.0	2Suff PseudoStemNW	24	588107	grearively	0.0	1.0	False
589.007	0.0	1Suff w/o Lat.	12	589007	merciful	1.0	0.0	False
590.158	0.0	1Suff w/o Lat.	12	590158	herbal	1.0	0.0	False
591.1	0.0	1Suff RealStemNW	15	591100	relentable	0.0	n/a	False
593.484	0.0	2Suff RealStemNW	25	593484	actfully	0.0	0.0	True
594.484	0.0	1Suff PseudoStemNW	14	594484	indlidstive	0.0	1.0	False
595.593	0.0	2Suff w/o Lat.	22	595593	carelessly	1.0	0.0	False
596.651	0.0	1Suff PseudoStemNW	14	596651	jokful	0.0	1.0	False
597.71	0.0	2Suff w/o Lat.	22	597710	spiritualize	1.0	0.0	False
599.436	0.0	2Suff PseudoStemNW	24	599436	lokeliness	0.0	1.0	False
600.553	0.0	2Suff RealStemNW	25	600553	selectously	0.0	1.0	False
601.845	0.0	1Suff w/o Lat.	12	601845	lusty	1.0	0.0	False
602.887	0.0	1Suff w/o Lat.	12	602887	noisy	1.0	0.0	False
603.837	0.0	0Suff NW	4	603837	nead	0.0	1.0	False
605.037	0.0	0Suff NW	4	605037	coyim	0.0	1.0	False
606.029	0.0	2Suff w/o Lat.	22	606029	sharpener	1.0	0.0	False
606.955	0.0	1Suff RealStemNW	15	606955	selfable	0.0	1.0	False
608.147	0.0	2Suff RealStemNW	25	608147	brokiness	0.0	1.0	False
609.155	0.0	1Suff PseudoStemNW	14	609155	brukal	0.0	1.0	False
610.147	0.0	1Suff RealStemNW	15	610147	modernate	0.0	0.0	True
611.206	0.0	1Suff RealStemNW	15	611206	selfory	0.0	1.0	False
612.29	0.0	1Suff w/o Lat.	12	612290	computer	1.0	0.0	False
613.298	0.0	2Suff w/ Lat.	21	613298	perfectionism	1.0	0.0	False
614.282	0.0	0Suff w/o Lat.	2	614282	culture	1.0	0.0	False
615.182	0.0	2Suff RealStemNW	25	615182	customantly	0.0	1.0	False
621.234	0.0	0Suff NW	4	621234	navoun	0.0	1.0	False
622.159	0.0	1Suff RealStemNW	15	622159	flexless	0.0	1.0	False
623.068	0.0	0Suff NW	4	623068	indolsty	0.0	1.0	False
624.001	0.0	2Suff w/o Lat.	22	624001	symbolically	1.0	0.0	False
625.26	0.0	2Suff w/o Lat.	22	625260	truthfully	1.0	0.0	False
626.127	0.0	1Suff w/o Lat.	12	626127	flexible	1.0	0.0	False
626.961	0.0	2Suff w/o Lat.	22	626961	greedily	1.0	0.0	False
627.869	0.0	1Suff RealStemNW	15	627869	careable	0.0	n/a	False
630.27	0.0	2Suff PseudoStemNW	24	630270	hettlessly	0.0	1.0	False
631.512	0.0	0Suff NW	4	631512	combure	0.0	1.0	False
632.512	0.0	1Suff w/o Lat.	12	632512	relentless	1.0	0.0	False
634.18	0.0	2Suff w/o Lat.	22	634180	relentlessly	1.0	0.0	False
635.247	0.0	2Suff PseudoStemNW	24	635247	conwodential	0.0	1.0	False
636.364	0.0	0Suff NW	4	636364	slex	0.0	1.0	False
637.397	0.0	2Suff RealStemNW	25	637397	vulgarilessly	0.0	1.0	False
638.306	0.0	2Suff RealStemNW	25	638306	ceaseiously	0.0	1.0	False
639.74	0.0	0Suff w/o Lat.	2	639740	noise	1.0	0.0	False
640.665	0.0	2Suff RealStemNW	25	640665	joyality	0.0	1.0	False
641.84	0.0	0Suff w/o Lat.	2	641840	fruit	1.0	0.0	False
642.774	0.0	2Suff RealStemNW	25	642774	effortiously	0.0	1.0	False
643.991	0.0	2Suff PseudoStemNW	24	643991	booftifully	0.0	1.0	False
645.233	0.0	2Suff RealStemNW	25	645233	continliness	0.0	1.0	False
646.467	0.0	0Suff w/ Lat.	1	646467	institute	1.0	0.0	False
647.517	0.0	2Suff RealStemNW	25	647517	causional	0.0	1.0	False
648.826	0.0	0Suff w/o Lat.	2	648826	suit	1.0	0.0	False
649.926	0.0	1Suff w/o Lat.	12	649926	victimize	1.0	0.0	False
650.86	0.0	0Suff w/o Lat.	2	650860	courage	1.0	0.0	False
651.76	0.0	2Suff RealStemNW	25	651760	masterively	0.0	1.0	False
652.894	0.0	1Suff w/o Lat.	12	652894	traditional	1.0	0.0	False
653.769	0.0	2Suff Composite	23	653769	valuation	1.0	0.0	False
654.786	0.0	2Suff w/o Lat.	22	654786	truthfulness	1.0	0.0	False
655.711	0.0	0Suff NW	4	655711	feal	0.0	0.0	True
656.553	0.0	0Suff NW	4	656553	colliff	0.0	1.0	False
657.487	0.0	2Suff RealStemNW	25	657487	fruitiously	0.0	1.0	False
658.487	0.0	0Suff w/o Lat.	2	658487	notice	1.0	0.0	False
659.487	0.0	0Suff w/o Lat.	2	659487	class	1.0	0.0	False
660.338	0.0	2Suff PseudoStemNW	24	660338	rinchfully	0.0	1.0	False
661.63	0.0	1Suff w/ Lat.	11	661630	perfection	1.0	0.0	False
662.463	0.0	1Suff RealStemNW	15	662463	civilist	0.0	0.0	True
663.647	0.0	1Suff w/o Lat.	12	663647	purify	1.0	0.0	False
664.547	0.0	2Suff Composite	23	664547	allegorical	1.0	0.0	False
665.631	0.0	0Suff NW	4	665631	dester	0.0	0.0	True
666.698	0.0	1Suff w/o Lat.	12	666698	sensible	1.0	0.0	False
668.123	0.0	2Suff PseudoStemNW	24	668123	arpivity	0.0	1.0	False
669.182	0.0	0Suff w/o Lat.	2	669182	second	1.0	0.0	False
670.057	0.0	2Suff PseudoStemNW	24	670057	pipsonalize	0.0	1.0	False
671.166	0.0	2Suff RealStemNW	25	671166	quizzally	0.0	1.0	False
672.125	0.0	1Suff RealStemNW	15	672125	exclusful	0.0	1.0	False
674.267	0.0	1Suff RealStemNW	15	674267	justant	0.0	1.0	False
675.359	0.0	2Suff PseudoStemNW	24	675359	feamfully	0.0	1.0	False
676.418	0.0	0Suff w/o Lat.	2	676418	end	1.0	0.0	False
677.493	0.0	1Suff w/o Lat.	12	677493	legalize	1.0	0.0	False
678.493	0.0	1Suff RealStemNW	15	678493	monumentic	0.0	0.0	True
679.819	0.0	0Suff w/o Lat.	2	679819	sharp	1.0	0.0	False
681.186	0.0	2Suff RealStemNW	25	681186	suitfulness	0.0	1.0	False
682.845	0.0	0Suff w/o Lat.	2	682845	broke	1.0	0.0	False
683.77	0.0	2Suff PseudoStemNW	24	683770	foffification	0.0	1.0	False
685.112	0.0	0Suff NW	4	685112	spip	0.0	1.0	False
686.121	0.0	0Suff NW	4	686121	assork	0.0	1.0	False
687.054	0.0	2Suff w/o Lat.	22	687054	selfishness	1.0	0.0	False
688.138	0.0	2Suff PseudoStemNW	24	688138	provacional	0.0	1.0	False
689.713	0.0	1Suff w/o Lat.	12	689713	slipper	1.0	0.0	False
690.739	0.0	1Suff PseudoStemNW	14	690739	inflisation	0.0	1.0	False
691.789	0.0	0Suff NW	4	691789	connurt	0.0	1.0	False
692.789	0.0	0Suff w/ Lat.	1	692789	conduct	1.0	0.0	False
693.881	0.0	1Suff RealStemNW	15	693881	cyclal	0.0	1.0	False
695.832	0.0	1Suff w/ Lat.	11	695832	conclusive	1.0	0.0	False
696.766	0.0	2Suff w/o Lat.	22	696766	nationalism	1.0	0.0	False
697.874	0.0	0Suff w/o Lat.	2	697874	comfort	1.0	0.0	False
698.724	0.0	2Suff Composite	23	698724	ordination	1.0	0.0	False
700.267	0.0	1Suff RealStemNW	15	700267	slippor	0.0	1.0	False
701.3	0.0	0Suff NW	4	701300	feam	0.0	1.0	False
702.342	0.0	2Suff w/o Lat.	22	702342	loveliness	1.0	n/a	False
704.743	0.0	2Suff w/o Lat.	22	704743	justification	1.0	0.0	False
705.677	0.0	0Suff NW	4	705677	jok	0.0	1.0	False
706.702	0.0	2Suff RealStemNW	25	706702	presumator	0.0	1.0	False
707.969	0.0	0Suff NW	4	707969	carsh	0.0	1.0	False
708.986	0.0	0Suff w/o Lat.	2	708986	clinic	1.0	0.0	False
710.195	0.0	2Suff w/o Lat.	22	710195	virtuosity	1.0	0.0	False
711.362	0.0	2Suff w/o Lat.	22	711362	hastily	1.0	0.0	False
712.412	0.0	1Suff w/o Lat.	12	712412	regional	1.0	0.0	False
713.671	0.0	1Suff w/ Lat.	11	713671	provision	1.0	0.0	False
714.654	0.0	1Suff RealStemNW	15	714654	effectful	0.0	0.0	True
715.463	0.0	0Suff w/ Lat.	1	715463	conclude	1.0	0.0	False
716.322	0.0	2Suff RealStemNW	25	716322	identifilessly	0.0	1.0	False
717.772	0.0	2Suff RealStemNW	25	717772	flexfulness	0.0	1.0	False
718.764	0.0	2Suff w/ Lat.	21	718764	objectionable	1.0	n/a	False
721.165	0.0	0Suff w/o Lat.	2	721165	comic	1.0	0.0	False
722.548	0.0	2Suff w/o Lat.	22	722548	nationally	1.0	0.0	False
723.499	0.0	0Suff w/o Lat.	2	723499	magic	1.0	0.0	False
724.416	0.0	2Suff PseudoStemNW	24	724416	faicification	0.0	0.0	True
725.916	0.0	0Suff w/o Lat.	2	725916	love	1.0	0.0	False
726.716	0.0	2Suff RealStemNW	25	726716	industriantly	0.0	1.0	False
728.917	0.0	2Suff RealStemNW	25	728917	opticical	0.0	1.0	False
730.434	0.0	0Suff NW	4	730434	obwert	0.0	1.0	False
731.318	0.0	2Suff PseudoStemNW	24	731318	contitually	0.0	1.0	False
732.335	0.0	1Suff RealStemNW	15	732335	provisate	0.0	1.0	False
733.268	0.0	2Suff PseudoStemNW	24	733268	navounalism	0.0	1.0	False
734.169	0.0	2Suff w/o Lat.	22	734169	personalize	1.0	0.0	False
735.194	0.0	0Suff NW	4	735194	tablic	0.0	0.0	True
736.77	0.0	2Suff RealStemNW	25	736770	dergadfully	0.0	1.0	False
738.17	0.0	1Suff PseudoStemNW	14	738170	indless	0.0	1.0	False
739.245	0.0	2Suff w/o Lat.	22	739245	helplessly	1.0	0.0	False
740.554	0.0	2Suff RealStemNW	25	740554	objectfully	0.0	0.0	True
741.688	0.0	1Suff w/o Lat.	12	741688	broker	1.0	1.0	True
743.947	0.0	2Suff PseudoStemNW	24	743947	mocondarily	0.0	1.0	False
745.139	0.0	1Suff RealStemNW	15	745139	virtance	0.0	1.0	False
746.156	0.0	0Suff NW	4	746156	pums	0.0	1.0	False
747.014	0.0	2Suff Composite	23	747014	solidification	1.0	0.0	False
748.465	0.0	1Suff w/o Lat.	12	748465	classic	1.0	0.0	False
749.298	0.0	2Suff w/o Lat.	22	749298	nationalist	1.0	0.0	False
750.107	0.0	0Suff NW	4	750107	inglinite	0.0	1.0	False
751.232	0.0	1Suff PseudoStemNW	14	751232	healty	0.0	1.0	False
752.374	0.0	1Suff RealStemNW	15	752374	preferless	0.0	1.0	False
753.608	0.0	2Suff PseudoStemNW	24	753608	darberously	0.0	1.0	False
754.583	0.0	0Suff w/o Lat.	2	754583	drunk	1.0	0.0	False
755.592	0.0	2Suff RealStemNW	25	755592	magicical	0.0	n/a	False
757.993	0.0	2Suff w/o Lat.	22	757993	kindliness	1.0	1.0	True
759.501	0.0	0Suff NW	4	759501	selp	0.0	1.0	False
768.921	0.0	2Suff w/o Lat.	22	768921	traditionally	1.0	0.0	False
769.921	0.0	0Suff NW	4	769921	ceant	0.0	1.0	False
770.972	0.0	2Suff w/o Lat.	22	770972	computerize	1.0	0.0	False
772.531	0.0	2Suff w/o Lat.	22	772531	effortlessly	1.0	0.0	False
773.506	0.0	2Suff w/o Lat.	22	773506	sensuality	1.0	0.0	False
774.623	0.0	2Suff PseudoStemNW	24	774623	sothodically	0.0	1.0	False
776.573	0.0	0Suff NW	4	776573	allend	0.0	1.0	False
777.865	0.0	0Suff w/o Lat.	2	777865	herb	1.0	0.0	False
778.824	0.0	0Suff NW	4	778824	movect	0.0	1.0	False
779.841	0.0	2Suff RealStemNW	25	779841	farcally	0.0	1.0	False
781.883	0.0	0Suff NW	4	781883	combore	0.0	1.0	False
782.925	0.0	2Suff PseudoStemNW	24	782925	cankfully	0.0	1.0	False
783.959	0.0	2Suff RealStemNW	25	783959	instinctfully	0.0	1.0	False
785.61	0.0	1Suff w/o Lat.	12	785610	national	1.0	0.0	False
786.601	0.0	2Suff PseudoStemNW	24	786601	comburation	0.0	1.0	False
787.852	0.0	0Suff w/o Lat.	2	787852	slip	1.0	0.0	False
788.735	0.0	2Suff PseudoStemNW	24	788735	pimerfully	0.0	1.0	False
789.652	0.0	1Suff w/o Lat.	12	789652	secondary	1.0	0.0	False
790.569	0.0	2Suff w/o Lat.	22	790569	noticeably	1.0	0.0	False
791.778	0.0	2Suff w/o Lat.	22	791778	clinically	1.0	0.0	False
792.82	0.0	0Suff w/o Lat.	2	792820	virtue	1.0	0.0	False
793.687	0.0	1Suff PseudoStemNW	14	793687	omlical	0.0	1.0	False
794.679	0.0	2Suff RealStemNW	25	794679	heroliness	0.0	1.0	False
795.754	0.0	2Suff Composite	23	795754	synchronization	1.0	0.0	False
796.88	0.0	2Suff w/o Lat.	22	796880	momentarily	1.0	0.0	False
798.063	0.0	1Suff w/o Lat.	12	798063	merciless	1.0	0.0	False
799.08	0.0	2Suff PseudoStemNW	24	799080	abadilionist	0.0	1.0	False
800.247	0.0	1Suff w/o Lat.	12	800247	endless	1.0	0.0	False
801.123	0.0	1Suff w/o Lat.	12	801123	argument	1.0	0.0	False
802.006	0.0	0Suff NW	4	802006	effern	0.0	1.0	False
803.115	0.0	2Suff w/o Lat.	22	803115	modulation	1.0	1.0	True
804.54	0.0	1Suff PseudoStemNW	14	804540	hainy	0.0	1.0	False
805.582	0.0	2Suff RealStemNW	25	805582	brutantly	0.0	0.0	True
807.258	0.0	0Suff NW	4	807258	shact	0.0	1.0	False
808.4	0.0	0Suff w/o Lat.	2	808400	flex	1.0	0.0	False
809.325	0.0	1Suff PseudoStemNW	14	809325	vetcinate	0.0	0.0	True
810.501	0.0	0Suff NW	4	810501	sarument	0.0	1.0	False
812.068	0.0	1Suff PseudoStemNW	14	812068	selvible	0.0	1.0	False
813.051	0.0	0Suff NW	4	813051	ind	0.0	1.0	False
814.043	0.0	2Suff Composite	23	814043	altercation	1.0	1.0	True
815.719	0.0	2Suff PseudoStemNW	24	815719	tistlessly	0.0	1.0	False
816.811	0.0	2Suff RealStemNW	25	816811	nationical	0.0	1.0	False
817.794	0.0	2Suff w/o Lat.	22	817794	senselessly	1.0	0.0	False
819.003	0.0	0Suff NW	4	819003	seet	0.0	1.0	False
820.037	0.0	2Suff PseudoStemNW	24	820037	pipsonality	0.0	1.0	False
821.145	0.0	1Suff RealStemNW	15	821145	conclusful	0.0	1.0	False
822.212	0.0	1Suff w/o Lat.	12	822212	suitable	1.0	0.0	False
823.279	0.0	0Suff NW	4	823279	darber	0.0	1.0	False
824.496	0.0	1Suff w/o Lat.	12	824496	modulate	1.0	0.0	False
826.514	0.0	2Suff w/o Lat.	22	826514	suitability	1.0	0.0	False
827.497	0.0	2Suff w/o Lat.	22	827497	customarily	1.0	0.0	False
828.814	0.0	1Suff w/o Lat.	12	828814	fearful	1.0	0.0	False
829.773	0.0	2Suff PseudoStemNW	24	829773	utiethation	0.0	1.0	False
830.998	0.0	2Suff RealStemNW	25	830998	couragliness	0.0	1.0	False
832.899	0.0	1Suff w/o Lat.	12	832899	clinical	1.0	0.0	False
833.866	0.0	2Suff Composite	23	833866	fortification	1.0	0.0	False
834.841	0.0	2Suff Composite	23	834841	voyeuristic	1.0	1.0	True
836.792	0.0	2Suff Composite	23	836792	hierarchical	1.0	0.0	False
837.776	0.0	0Suff w/o Lat.	2	837776	create	1.0	0.0	False
838.584	0.0	2Suff w/ Lat.	21	838584	exclusively	1.0	0.0	False
839.484	0.0	2Suff PseudoStemNW	24	839484	trithfulness	0.0	1.0	False
840.668	0.0	0Suff NW	4	840668	cedil	0.0	1.0	False
841.752	0.0	2Suff RealStemNW	25	841752	signmentive	0.0	1.0	False
842.81	0.0	1Suff RealStemNW	15	842810	helpable	0.0	1.0	False
843.836	0.0	1Suff w/o Lat.	12	843836	selfish	1.0	0.0	False
844.894	0.0	2Suff PseudoStemNW	24	844894	vetcination	0.0	1.0	False
846.745	0.0	0Suff w/o Lat.	2	846745	luck	1.0	0.0	False
847.77	0.0	0Suff w/o Lat.	2	847770	respect	1.0	0.0	False
848.712	0.0	0Suff NW	4	848712	arp	0.0	1.0	False
849.804	0.0	2Suff PseudoStemNW	24	849804	jistifiable	0.0	0.0	True
851.055	0.0	2Suff w/o Lat.	22	851055	assertiveness	1.0	0.0	False
852.53	0.0	1Suff w/o Lat.	12	852530	mournful	1.0	0.0	False
853.589	0.0	2Suff w/o Lat.	22	853589	personally	1.0	0.0	False
854.472	0.0	1Suff PseudoStemNW	14	854472	obwertive	0.0	1.0	False
855.448	0.0	0Suff w/o Lat.	2	855448	danger	1.0	0.0	False
856.398	0.0	1Suff w/o Lat.	12	856398	respective	1.0	0.0	False
857.265	0.0	1Suff w/o Lat.	12	857265	needless	1.0	0.0	False
858.199	0.0	0Suff w/o Lat.	2	858199	sign	1.0	0.0	False
859.074	0.0	0Suff NW	4	859074	abadill	0.0	1.0	False
860.032	0.0	0Suff w/o Lat.	2	860032	truth	1.0	0.0	False
860.858	0.0	0Suff NW	4	860858	rinch	0.0	1.0	False
862.058	0.0	0Suff NW	4	862058	vetcine	0.0	1.0	False
863.183	0.0	0Suff NW	4	863183	jany	0.0	1.0	False
864.1	0.0	0Suff NW	4	864100	conwode	0.0	1.0	False
865.017	0.0	2Suff w/o Lat.	22	865017	drunkenly	1.0	1.0	True
866.434	0.0	2Suff PseudoStemNW	24	866434	ewilsential	0.0	1.0	False
867.36	0.0	1Suff w/o Lat.	12	867360	attractive	1.0	0.0	False
868.318	0.0	2Suff RealStemNW	25	868318	expansishness	0.0	1.0	False
869.61	0.0	2Suff w/o Lat.	22	869610	modernistic	1.0	0.0	False
871.236	0.0	1Suff RealStemNW	15	871236	commerceic	0.0	1.0	False
872.503	0.0	0Suff NW	4	872503	moolure	0.0	1.0	False
873.403	0.0	0Suff NW	4	873403	efforn	0.0	1.0	False
874.37	0.0	0Suff w/o Lat.	2	874370	exist	1.0	0.0	False
875.262	0.0	2Suff w/o Lat.	22	875262	mercifully	1.0	0.0	False
876.487	0.0	0Suff NW	4	876487	gunder	0.0	1.0	False
877.504	0.0	2Suff Composite	23	877504	unification	1.0	0.0	False
878.772	0.0	1Suff PseudoStemNW	14	878772	selveless	0.0	1.0	False
879.922	0.0	2Suff RealStemNW	25	879922	legalability	0.0	1.0	False
880.997	0.0	1Suff w/o Lat.	12	880997	selective	1.0	0.0	False
881.922	0.0	0Suff NW	4	881922	healt	0.0	1.0	False
882.923	0.0	2Suff PseudoStemNW	24	882923	atstartively	0.0	1.0	False
883.981	0.0	1Suff RealStemNW	15	883981	conductful	0.0	0.0	True
885.649	0.0	1Suff w/o Lat.	12	885649	continual	1.0	0.0	False
886.807	0.0	1Suff w/ Lat.	11	886807	explosive	1.0	0.0	False
887.649	0.0	2Suff RealStemNW	25	887649	signiousness	0.0	1.0	False
889.0	0.0	1Suff w/o Lat.	12	889000	methodical	1.0	0.0	False
890.033	0.0	1Suff w/o Lat.	12	890033	civilize	1.0	0.0	False
891.65	0.0	2Suff RealStemNW	25	891650	whimsally	0.0	1.0	False
892.993	0.0	0Suff w/o Lat.	2	892993	brute	1.0	0.0	False
893.868	0.0	1Suff PseudoStemNW	14	893868	rinchful	0.0	1.0	False
894.943	0.0	1Suff w/o Lat.	12	894943	lonely	1.0	0.0	False
895.793	0.0	0Suff w/o Lat.	2	895793	industry	1.0	0.0	False
896.835	0.0	2Suff w/o Lat.	22	896835	existential	1.0	0.0	False
897.811	0.0	2Suff RealStemNW	25	897811	selectfully	0.0	0.0	True
898.794	0.0	2Suff w/o Lat.	22	898794	causality	1.0	0.0	False
899.695	0.0	2Suff w/o Lat.	22	899695	optically	1.0	0.0	False
900.512	0.0	0Suff w/o Lat.	2	900512	art	1.0	0.0	False
901.445	0.0	1Suff w/o Lat.	12	901445	expansive	1.0	0.0	False
902.621	0.0	1Suff RealStemNW	15	902621	mercyive	0.0	1.0	False
913.391	0.0	2Suff w/o Lat.	22	913391	activist	1.0	0.0	False
914.291	0.0	2Suff w/o Lat.	22	914291	continuously	1.0	0.0	False
915.266	0.0	2Suff Composite	23	915266	identification	1.0	0.0	False
916.2	0.0	0Suff NW	4	916200	simn	0.0	1.0	False
917.125	0.0	0Suff NW	4	917125	herf	0.0	1.0	False
918.092	0.0	0Suff NW	4	918092	massien	0.0	1.0	False
919.026	0.0	2Suff PseudoStemNW	24	919026	ludsily	0.0	1.0	False
919.968	0.0	2Suff w/o Lat.	22	919968	artistic	1.0	0.0	False
920.843	0.0	1Suff w/o Lat.	12	920843	beautiful	1.0	0.0	False
921.693	0.0	2Suff w/o Lat.	22	921693	carefully	1.0	0.0	False
922.56	0.0	1Suff w/ Lat.	11	922560	inspiration	1.0	0.0	False
923.435	0.0	1Suff PseudoStemNW	14	923435	moolurable	0.0	1.0	False
924.386	0.0	0Suff NW	4	924386	bruke	0.0	1.0	False
925.319	0.0	2Suff PseudoStemNW	24	925319	conspodively	0.0	1.0	False
926.236	0.0	2Suff w/o Lat.	22	926236	mournfully	1.0	0.0	False
927.178	0.0	1Suff w/o Lat.	12	927178	humanist	1.0	0.0	False
928.462	0.0	2Suff w/o Lat.	22	928462	expansiveness	1.0	0.0	False
930.396	0.0	1Suff PseudoStemNW	14	930396	atstartive	0.0	1.0	False
931.446	0.0	1Suff w/o Lat.	12	931446	sharpen	1.0	0.0	False
932.496	0.0	1Suff w/o Lat.	12	932496	monumental	1.0	0.0	False
933.572	0.0	0Suff w/o Lat.	2	933572	cease	1.0	0.0	False
934.605	0.0	1Suff w/o Lat.	12	934605	powerful	1.0	0.0	False
935.631	0.0	2Suff RealStemNW	25	935631	humanional	0.0	0.0	True
936.889	0.0	2Suff w/o Lat.	22	936889	instinctively	1.0	0.0	False
937.956	0.0	0Suff w/o Lat.	2	937956	method	1.0	0.0	False
938.848	0.0	2Suff RealStemNW	25	938848	purifilessly	0.0	1.0	False
940.19	0.0	2Suff w/o Lat.	22	940190	selflessness	1.0	0.0	False
941.399	0.0	1Suff RealStemNW	15	941399	variment	0.0	1.0	False
942.416	0.0	0Suff w/o Lat.	2	942416	modern	1.0	0.0	False
943.825	0.0	2Suff PseudoStemNW	24	943825	movectistic	0.0	1.0	False
945.034	0.0	2Suff w/o Lat.	22	945034	rightfully	1.0	0.0	False
946.009	0.0	2Suff RealStemNW	25	946009	expressmental	0.0	1.0	False
947.284	0.0	1Suff PseudoStemNW	14	947284	ludsy	0.0	1.0	False
948.276	0.0	1Suff w/ Lat.	11	948276	excessive	1.0	0.0	False
949.227	0.0	0Suff w/o Lat.	2	949227	nation	1.0	0.0	False
950.26	0.0	2Suff w/o Lat.	22	950260	endlessly	1.0	0.0	False
951.144	0.0	2Suff RealStemNW	25	951144	sensator	0.0	0.0	True
951.969	0.0	0Suff NW	4	951969	sedule	0.0	1.0	False
953.328	0.0	0Suff w/o Lat.	2	953328	power	1.0	0.0	False
954.236	0.0	1Suff w/o Lat.	12	954236	fruitless	1.0	0.0	False
955.42	0.0	1Suff PseudoStemNW	14	955420	londly	0.0	1.0	False
956.645	0.0	2Suff RealStemNW	25	956645	foolality	0.0	1.0	False
957.904	0.0	1Suff RealStemNW	15	957904	fruitable	0.0	1.0	False
959.33	0.0	0Suff NW	4	959330	tist	0.0	1.0	False
960.572	0.0	0Suff NW	4	960572	eschess	0.0	1.0	False
961.614	0.0	2Suff PseudoStemNW	24	961614	arresogical	0.0	1.0	False
962.581	0.0	0Suff NW	4	962581	lond	0.0	1.0	False
963.664	0.0	0Suff w/o Lat.	2	963664	relent	1.0	1.0	True
965.031	0.0	2Suff Composite	23	965031	secularization	1.0	0.0	False
967.324	0.0	2Suff w/o Lat.	22	967324	courageously	1.0	0.0	False
968.532	0.0	0Suff w/o Lat.	2	968532	haste	1.0	0.0	False
969.991	0.0	2Suff w/o Lat.	22	969991	heroically	1.0	0.0	False
971.058	0.0	2Suff Composite	23	971058	purification	1.0	0.0	False
972.125	0.0	2Suff PseudoStemNW	24	972125	jistification	0.0	1.0	False
973.642	0.0	0Suff NW	4	973642	prosood	0.0	1.0	False
974.584	0.0	2Suff Composite	23	974584	quizzical	1.0	1.0	True
975.501	0.0	2Suff w/o Lat.	22	975501	nationality	1.0	0.0	False
976.46	0.0	0Suff w/o Lat.	2	976460	region	1.0	0.0	False
977.485	0.0	2Suff PseudoStemNW	24	977485	comfernably	0.0	1.0	False
978.502	0.0	2Suff RealStemNW	25	978502	virtuerize	0.0	1.0	False
979.477	0.0	2Suff w/o Lat.	22	979477	modernization	1.0	0.0	False
980.745	0.0	0Suff w/o Lat.	2	980745	measure	1.0	0.0	False
981.611	0.0	2Suff w/o Lat.	22	981611	powerfully	1.0	0.0	False
982.437	0.0	1Suff PseudoStemNW	14	982437	rincheous	0.0	1.0	False
983.47	0.0	1Suff PseudoStemNW	14	983470	desterful	0.0	0.0	True
984.371	0.0	1Suff PseudoStemNW	14	984371	comfernable	0.0	1.0	False
985.654	0.0	0Suff NW	4	985654	awn	0.0	1.0	False
986.963	0.0	2Suff PseudoStemNW	24	986963	lurtilizer	0.0	1.0	False
988.13	0.0	0Suff w/ Lat.	1	988130	express	1.0	0.0	False
989.139	0.0	1Suff RealStemNW	15	989139	exceptate	0.0	1.0	False
990.548	0.0	0Suff w/o Lat.	2	990548	abolish	1.0	0.0	False
991.623	0.0	1Suff RealStemNW	15	991623	effortable	0.0	1.0	False
992.965	0.0	0Suff w/o Lat.	2	992965	expand	1.0	0.0	False
993.849	0.0	2Suff w/o Lat.	22	993849	brutalize	1.0	0.0	False
994.774	0.0	0Suff w/o Lat.	2	994774	critic	1.0	0.0	False
995.707	0.0	2Suff PseudoStemNW	24	995707	bleadfully	0.0	1.0	False
996.766	0.0	2Suff w/o Lat.	22	996766	mercilessly	1.0	0.0	False
998.833	0.0	1Suff w/ Lat.	11	998833	conductive	1.0	0.0	False
999.709	0.0	1Suff w/o Lat.	12	999709	fertilize	1.0	0.0	False
1000.601	0.0	0Suff w/o Lat.	2	1000601	FALSE	1.0	0.0	False
1001.468	0.0	1Suff RealStemNW	15	1001468	stylify	0.0	0.0	True
1002.31	0.0	0Suff w/o Lat.	2	1002310	style	1.0	0.0	False
1003.176	0.0	2Suff w/o Lat.	22	1003176	helplessness	1.0	0.0	False
1005.394	0.0	1Suff PseudoStemNW	14	1005394	sothodical	0.0	1.0	False
1006.519	0.0	2Suff PseudoStemNW	24	1006519	pipsonally	0.0	1.0	False
1007.536	0.0	0Suff w/o Lat.	2	1007536	continue	1.0	0.0	False
1008.461	0.0	2Suff RealStemNW	25	1008461	commerceional	0.0	1.0	False
1009.728	0.0	0Suff NW	4	1009728	indlidst	0.0	1.0	False
1010.654	0.0	0Suff w/o Lat.	2	1010654	excel	1.0	0.0	False
1011.712	0.0	0Suff w/o Lat.	2	1011712	select	1.0	0.0	False
1012.596	0.0	2Suff RealStemNW	25	1012596	unifilessly	0.0	1.0	False
1013.813	0.0	2Suff PseudoStemNW	24	1013813	pogularization	0.0	0.0	True
1014.98	0.0	0Suff w/o Lat.	2	1014980	proceed	1.0	0.0	False
1016.481	0.0	0Suff w/ Lat.	1	1016481	inspire	1.0	0.0	False
1017.372	0.0	1Suff w/o Lat.	12	1017372	virtuous	1.0	0.0	False
1018.356	0.0	1Suff w/o Lat.	12	1018356	artful	1.0	0.0	False
1019.231	0.0	0Suff NW	4	1019231	exprede	0.0	1.0	False
1020.198	0.0	1Suff PseudoStemNW	14	1020198	arpive	0.0	1.0	False
1021.207	0.0	0Suff NW	4	1021207	trith	0.0	1.0	False
1022.141	0.0	2Suff PseudoStemNW	24	1022141	massienately	0.0	1.0	False
1023.108	0.0	1Suff w/o Lat.	12	1023108	various	1.0	0.0	False
1024.008	0.0	1Suff PseudoStemNW	14	1024008	elpardive	0.0	1.0	False
1025.058	0.0	2Suff w/o Lat.	22	1025058	dangerously	1.0	0.0	False
1025.892	0.0	1Suff w/o Lat.	12	1025892	confidence	1.0	0.0	False
1026.767	0.0	2Suff PseudoStemNW	24	1026767	mourdfully	0.0	1.0	False
1028.142	0.0	1Suff RealStemNW	15	1028142	industryic	0.0	1.0	False
1029.635	0.0	2Suff w/o Lat.	22	1029635	helpfully	1.0	0.0	False
1030.743	0.0	0Suff w/o Lat.	2	1030743	human	1.0	0.0	False
1031.744	0.0	2Suff RealStemNW	25	1031744	assertishness	0.0	1.0	False
1033.652	0.0	0Suff w/o Lat.	2	1033652	passion	1.0	0.0	False
1034.603	0.0	0Suff NW	4	1034603	excrode	0.0	1.0	False
1035.636	0.0	0Suff NW	4	1035636	omlic	0.0	1.0	False
1036.57	0.0	0Suff w/o Lat.	2	1036570	beauty	1.0	0.0	False
1037.462	0.0	1Suff w/o Lat.	12	1037462	lovely	1.0	0.0	False
1038.287	0.0	2Suff w/o Lat.	22	1038287	dreadfully	1.0	0.0	False
1039.288	0.0	2Suff RealStemNW	25	1039288	endiously	0.0	1.0	False
1040.371	0.0	0Suff NW	4	1040371	victap	0.0	1.0	False
1041.447	0.0	0Suff w/o Lat.	2	1041447	wonder	1.0	0.0	False
1042.522	0.0	0Suff NW	4	1042522	murpy	0.0	1.0	False
1047.799	0.0	0Suff NW	4	1047799	pacic	0.0	1.0	False
1048.749	0.0	2Suff PseudoStemNW	24	1048749	gunderfully	0.0	1.0	False
1049.666	0.0	1Suff RealStemNW	15	1049666	drunkor	0.0	1.0	False
1050.616	0.0	0Suff NW	4	1050616	styke	0.0	1.0	False
1051.516	0.0	2Suff Composite	23	1051516	limitation	1.0	0.0	False
1052.533	0.0	0Suff w/o Lat.	2	1052533	vary	1.0	0.0	False
1053.509	0.0	2Suff w/o Lat.	22	1053509	suitably	1.0	0.0	False
1054.434	0.0	0Suff NW	4	1054434	franic	0.0	1.0	False
1055.818	0.0	2Suff PseudoStemNW	24	1055818	rincheousness	0.0	1.0	False
1056.976	0.0	2Suff Composite	23	1056976	embarkation	1.0	0.0	False
1059.119	0.0	2Suff w/o Lat.	22	1059119	critically	1.0	0.0	False
1060.036	0.0	1Suff RealStemNW	15	1060036	fearive	0.0	1.0	False
1061.269	0.0	1Suff w/o Lat.	12	1061269	industrial	1.0	0.0	False
1062.295	0.0	2Suff RealStemNW	25	1062295	actional	0.0	1.0	False
1063.753	0.0	0Suff w/o Lat.	2	1063753	own	1.0	0.0	False
1064.637	0.0	1Suff RealStemNW	15	1064637	feverory	0.0	1.0	False
1065.662	0.0	2Suff PseudoStemNW	24	1065662	moolurably	0.0	1.0	False
1066.671	0.0	0Suff NW	4	1066671	cuppom	0.0	1.0	False
1067.58	0.0	2Suff w/o Lat.	22	1067580	legalization	1.0	0.0	False
1068.647	0.0	1Suff w/o Lat.	12	1068647	careful	1.0	0.0	False
1069.464	0.0	2Suff w/o Lat.	22	1069464	confidential	1.0	0.0	False
1070.422	0.0	2Suff RealStemNW	25	1070422	ordinfully	0.0	1.0	False
1071.489	0.0	1Suff w/o Lat.	12	1071489	magical	1.0	0.0	False
1072.273	0.0	2Suff RealStemNW	25	1072273	respectfully	0.0	0.0	True
1073.19	0.0	2Suff w/ Lat.	21	1073190	perfectionist	1.0	0.0	False
1074.19	0.0	2Suff w/o Lat.	22	1074190	methodically	1.0	0.0	False
1075.29	0.0	1Suff PseudoStemNW	14	1075290	traphetic	0.0	1.0	False
1076.366	0.0	1Suff PseudoStemNW	14	1076366	griedy	0.0	1.0	False
1077.399	0.0	0Suff NW	4	1077399	creric	0.0	1.0	False
1078.391	0.0	2Suff w/o Lat.	22	1078391	abolitionist	1.0	1.0	True
1079.8	0.0	2Suff PseudoStemNW	24	1079800	sedulation	0.0	1.0	False
1081.309	0.0	1Suff w/o Lat.	12	1081309	modernist	1.0	0.0	False
1082.551	0.0	1Suff PseudoStemNW	14	1082551	herfal	0.0	1.0	False
1083.576	0.0	1Suff PseudoStemNW	14	1083576	ewilsence	0.0	1.0	False
1084.818	0.0	2Suff w/o Lat.	22	1084818	flexibility	1.0	0.0	False
1085.769	0.0	2Suff w/o Lat.	22	1085769	heartily	1.0	0.0	False
1086.66	0.0	1Suff PseudoStemNW	14	1086660	recrernive	0.0	1.0	False
1087.994	0.0	1Suff PseudoStemNW	14	1087994	awnist	0.0	1.0	False
1089.011	0.0	0Suff w/o Lat.	2	1089011	heart	1.0	0.0	False
1090.12	0.0	2Suff RealStemNW	25	1090120	inspiratality	0.0	1.0	False
1091.32	0.0	2Suff Composite	23	1091320	identical	1.0	0.0	False
1092.262	0.0	1Suff RealStemNW	15	1092262	tireable	0.0	1.0	False
1093.938	0.0	0Suff NW	4	1093938	mocond	0.0	1.0	False
1095.113	0.0	1Suff w/o Lat.	12	1095113	breathless	1.0	0.0	False
1096.122	0.0	2Suff w/ Lat.	21	1096122	presumably	1.0	0.0	False
1097.172	0.0	2Suff w/o Lat.	22	1097172	sensibly	1.0	0.0	False
1098.047	0.0	1Suff w/o Lat.	12	1098047	rightful	1.0	0.0	False
1098.848	0.0	0Suff NW	4	1098848	elpard	0.0	1.0	False
1099.881	0.0	2Suff RealStemNW	25	1099881	actality	0.0	1.0	False
1101.223	0.0	0Suff NW	4	1101223	selve	0.0	1.0	False
1102.307	0.0	2Suff Composite	23	1102307	paradoxical	1.0	0.0	False
1103.441	0.0	2Suff PseudoStemNW	24	1103441	melidification	0.0	1.0	False
1104.758	0.0	1Suff w/ Lat.	11	1104758	composite	1.0	0.0	False
1105.891	0.0	1Suff w/o Lat.	12	1105891	falsify	1.0	0.0	False
1106.833	0.0	2Suff w/ Lat.	21	1106833	exceptional	1.0	0.0	False
1107.692	0.0	2Suff PseudoStemNW	24	1107692	flivitualism	0.0	1.0	False
1108.742	0.0	2Suff PseudoStemNW	24	1108742	foptration	0.0	1.0	False
1109.701	0.0	1Suff RealStemNW	15	1109701	assertful	0.0	0.0	True
1110.643	0.0	1Suff w/ Lat.	11	1110643	presumable	1.0	0.0	False
1111.877	0.0	0Suff NW	4	1111877	fortord	0.0	1.0	False
1112.935	0.0	0Suff NW	4	1112935	meleft	0.0	1.0	False
1113.794	0.0	1Suff PseudoStemNW	14	1113794	flivitual	0.0	1.0	False
1114.761	0.0	0Suff NW	4	1114761	nolave	0.0	1.0	False
1115.728	0.0	2Suff w/o Lat.	22	1115728	lustily	1.0	1.0	True
1117.528	0.0	1Suff RealStemNW	15	1117528	truthive	0.0	1.0	False
1118.704	0.0	2Suff RealStemNW	25	1118704	fooliveness	0.0	1.0	False
1119.679	0.0	1Suff RealStemNW	15	1119679	modulion	0.0	1.0	False
1120.721	0.0	2Suff w/o Lat.	22	1120721	admirably	1.0	0.0	False
1121.663	0.0	0Suff NW	4	1121663	esress	0.0	1.0	False
1122.547	0.0	2Suff RealStemNW	25	1122547	drunkoral	0.0	1.0	False
1123.463	0.0	0Suff w/o Lat.	2	1123463	greed	1.0	0.0	False
1124.472	0.0	2Suff w/o Lat.	22	1124472	righteousness	1.0	0.0	False
1125.647	0.0	2Suff RealStemNW	25	1125647	voyeurional	0.0	1.0	False
1126.748	0.0	2Suff w/o Lat.	22	1126748	cyclical	1.0	0.0	False
1127.798	0.0	2Suff w/o Lat.	22	1127798	fortunately	1.0	0.0	False
1128.723	0.0	2Suff PseudoStemNW	24	1128723	jokfully	0.0	1.0	False
1129.774	0.0	2Suff PseudoStemNW	24	1129774	flivitualize	0.0	1.0	False
1130.782	0.0	2Suff w/o Lat.	22	1130782	activate	1.0	0.0	False
1131.733	0.0	1Suff RealStemNW	15	1131733	continuic	0.0	1.0	False
1132.808	0.0	2Suff RealStemNW	25	1132808	hastery	0.0	1.0	False
1134.075	0.0	2Suff w/o Lat.	22	1134075	slippery	1.0	0.0	False
1134.95	0.0	1Suff w/ Lat.	11	1134950	expression	1.0	0.0	False
1135.867	0.0	2Suff w/ Lat.	21	1135867	objectively	1.0	0.0	False
1136.851	0.0	1Suff PseudoStemNW	14	1136851	nolfy	0.0	1.0	False
1137.885	0.0	1Suff RealStemNW	15	1137885	collectful	0.0	0.0	True
1138.835	0.0	2Suff PseudoStemNW	24	1138835	selvation	0.0	1.0	False
1139.777	0.0	0Suff w/o Lat.	2	1139777	assert	1.0	0.0	False
1140.719	0.0	1Suff w/o Lat.	12	1140719	tactical	1.0	0.0	False
1141.969	0.0	1Suff w/ Lat.	11	1141969	exclusive	1.0	0.0	False
1142.994	0.0	2Suff RealStemNW	25	1142994	selfiousness	0.0	1.0	False
1144.62	0.0	0Suff w/o Lat.	2	1144620	help	1.0	0.0	False
1145.429	0.0	2Suff PseudoStemNW	24	1145429	prosodural	0.0	1.0	False
1146.345	0.0	1Suff w/o Lat.	12	1146345	lucky	1.0	0.0	False
1147.229	0.0	2Suff RealStemNW	25	1147229	commerceical	0.0	1.0	False
1148.688	0.0	1Suff RealStemNW	15	1148688	magicic	0.0	1.0	False
1149.73	0.0	2Suff w/o Lat.	22	1149730	wonderfully	1.0	0.0	False
1151.08	0.0	2Suff w/o Lat.	22	1151080	variability	1.0	0.0	False
1152.256	0.0	2Suff PseudoStemNW	24	1152256	canklessly	0.0	1.0	False
1153.331	0.0	0Suff w/o Lat.	2	1153331	monument	1.0	0.0	False
1154.19	0.0	2Suff w/o Lat.	22	1154190	carelessness	1.0	0.0	False
1155.148	0.0	1Suff PseudoStemNW	14	1155148	awnful	0.0	1.0	False
1156.265	0.0	2Suff w/o Lat.	22	1156265	comically	1.0	0.0	False
1158.266	0.0	1Suff w/o Lat.	12	1158266	artist	1.0	0.0	False
1159.333	0.0	0Suff NW	4	1159333	hunen	0.0	1.0	False
1160.383	0.0	2Suff RealStemNW	25	1160383	brutional	0.0	1.0	False
1161.584	0.0	2Suff w/o Lat.	22	1161584	collectively	1.0	0.0	False
1162.542	0.0	1Suff w/o Lat.	12	1162542	abolition	1.0	0.0	False
1163.576	0.0	1Suff w/o Lat.	12	1163576	cultural	1.0	0.0	False
1164.584	0.0	0Suff NW	4	1164584	vectue	0.0	1.0	False
1165.643	0.0	2Suff RealStemNW	25	1165643	useiveness	0.0	1.0	False
1166.71	0.0	1Suff PseudoStemNW	14	1166710	brealtless	0.0	1.0	False
