onset	duration	trial_type	value	sample	stimulus	is_word	response	correct
28.472	0.0	2Suff RealStemNW	25	28472	selectously	0.0	1.0	False
30.148	0.0	1Suff w/o Lat.	12	30148	clinical	1.0	0.0	False
31.382	0.0	2Suff w/o Lat.	22	31382	righteousness	1.0	0.0	False
32.89	0.0	2Suff PseudoStemNW	24	32890	foffification	0.0	1.0	False
34.007	0.0	2Suff w/o Lat.	22	34007	personally	1.0	0.0	False
35.116	0.0	0Suff w/o Lat.	2	35116	compute	1.0	0.0	False
36.375	0.0	1Suff w/o Lat.	12	36375	careful	1.0	0.0	False
37.467	0.0	1Suff w/o Lat.	12	37467	flexible	1.0	0.0	False
38.517	0.0	2Suff PseudoStemNW	24	38517	ewilsential	0.0	1.0	False
39.542	0.0	1Suff w/o Lat.	12	39542	falsify	1.0	0.0	False
41.343	0.0	2Suff RealStemNW	25	41343	expressmental	0.0	1.0	False
42.827	0.0	1Suff RealStemNW	15	42827	selectful	0.0	0.0	True
44.01	0.0	2Suff PseudoStemNW	24	44010	seetably	0.0	1.0	False
45.194	0.0	2Suff RealStemNW	25	45194	neediously	0.0	1.0	False
47.095	0.0	2Suff RealStemNW	25	47095	stylional	0.0	1.0	False
48.22	0.0	1Suff w/o Lat.	12	48220	stylist	1.0	0.0	False
49.42	0.0	0Suff w/o Lat.	2	49420	nation	1.0	0.0	False
50.454	0.0	2Suff Composite	23	50454	classification	1.0	0.0	False
51.546	0.0	2Suff w/o Lat.	22	51546	spiritually	1.0	0.0	False
52.521	0.0	2Suff PseudoStemNW	24	52521	procation	0.0	1.0	False
53.588	0.0	2Suff w/o Lat.	22	53588	industrialist	1.0	1.0	True
54.914	0.0	0Suff NW	4	54914	efforn	0.0	1.0	False
56.031	0.0	2Suff w/o Lat.	22	56031	selfishness	1.0	0.0	False
57.356	0.0	1Suff w/ Lat.	11	57356	inspiration	1.0	0.0	False
58.807	0.0	0Suff NW	4	58807	pacic	0.0	1.0	False
60.032	0.0	2Suff PseudoStemNW	24	60032	hettfully	0.0	1.0	False
61.066	0.0	0Suff NW	4	61066	bruke	0.0	1.0	False
62.6	0.0	0Suff w/ Lat.	1	62600	presume	1.0	0.0	False
63.908	0.0	1Suff w/o Lat.	12	63908	masterful	1.0	0.0	False
64.942	0.0	1Suff w/o Lat.	12	64942	momentary	1.0	0.0	False
66.159	0.0	2Suff PseudoStemNW	24	66159	arresogical	0.0	1.0	False
67.451	0.0	2Suff w/o Lat.	22	67451	fruitlessly	1.0	0.0	False
69.135	0.0	0Suff NW	4	69135	pipson	0.0	1.0	False
70.585	0.0	0Suff NW	4	70585	vetcine	0.0	1.0	False
71.669	0.0	0Suff NW	4	71669	combere	0.0	1.0	False
72.953	0.0	2Suff PseudoStemNW	24	72953	healtily	0.0	1.0	False
74.236	0.0	2Suff w/o Lat.	22	74236	procedural	1.0	0.0	False
75.345	0.0	1Suff w/o Lat.	12	75345	industrial	1.0	0.0	False
76.454	0.0	2Suff Composite	23	76454	altercation	1.0	0.0	False
78.313	0.0	0Suff w/o Lat.	2	78313	love	1.0	0.0	False
79.58	0.0	1Suff PseudoStemNW	14	79580	indless	0.0	1.0	False
80.672	0.0	1Suff RealStemNW	15	80672	mercyive	0.0	1.0	False
81.722	0.0	2Suff RealStemNW	25	81722	civilability	0.0	1.0	False
83.356	0.0	2Suff w/o Lat.	22	83356	abolitionist	1.0	0.0	False
84.715	0.0	0Suff NW	4	84715	arbub	0.0	1.0	False
85.973	0.0	2Suff RealStemNW	25	85973	ceaseiously	0.0	1.0	False
87.349	0.0	2Suff PseudoStemNW	24	87349	awnfully	0.0	1.0	False
88.883	0.0	2Suff w/o Lat.	22	88883	comfortably	1.0	0.0	False
90.425	0.0	1Suff w/o Lat.	12	90425	civilize	1.0	0.0	False
91.942	0.0	1Suff RealStemNW	15	91942	momentish	0.0	1.0	False
93.251	0.0	1Suff w/o Lat.	12	93251	sensual	1.0	0.0	False
94.701	0.0	1Suff PseudoStemNW	14	94701	esressive	0.0	1.0	False
95.893	0.0	2Suff Composite	23	95893	voyeuristic	1.0	1.0	True
97.035	0.0	2Suff PseudoStemNW	24	97035	movectistic	0.0	1.0	False
98.094	0.0	2Suff Composite	23	98094	victimization	1.0	0.0	False
99.361	0.0	1Suff PseudoStemNW	14	99361	janiable	0.0	1.0	False
100.561	0.0	2Suff Composite	23	100561	probation	1.0	0.0	False
101.837	0.0	0Suff w/o Lat.	2	101837	lust	1.0	0.0	False
102.97	0.0	0Suff NW	4	102970	byvre	0.0	1.0	False
104.037	0.0	0Suff NW	4	104037	fortord	0.0	1.0	False
105.179	0.0	1Suff RealStemNW	15	105179	provisate	0.0	1.0	False
106.771	0.0	2Suff w/o Lat.	22	106771	tactically	1.0	0.0	False
108.072	0.0	0Suff NW	4	108072	jok	0.0	1.0	False
109.156	0.0	0Suff NW	4	109156	gunder	0.0	1.0	False
110.323	0.0	2Suff w/o Lat.	22	110323	mournfully	1.0	0.0	False
111.706	0.0	1Suff w/o Lat.	12	111706	fertilize	1.0	0.0	False
112.798	0.0	0Suff w/o Lat.	2	112798	brute	1.0	0.0	False
113.832	0.0	2Suff PseudoStemNW	24	113832	trithfulness	0.0	1.0	False
115.174	0.0	2Suff w/o Lat.	22	115174	significant	1.0	0.0	False
116.466	0.0	1Suff w/o Lat.	12	116466	variable	1.0	0.0	False
117.65	0.0	2Suff PseudoStemNW	24	117650	flivitually	0.0	1.0	False
118.842	0.0	2Suff w/o Lat.	22	118842	joyfully	1.0	0.0	False
120.792	0.0	1Suff w/o Lat.	12	120792	modernist	1.0	0.0	False
121.784	0.0	1Suff w/o Lat.	12	121784	continual	1.0	0.0	False
123.26	0.0	0Suff NW	4	123260	abadill	0.0	1.0	False
124.277	0.0	0Suff w/o Lat.	2	124277	fertile	1.0	0.0	False
125.31	0.0	2Suff w/ Lat.	21	125310	composition	1.0	0.0	False
126.594	0.0	2Suff w/o Lat.	22	126594	noisily	1.0	0.0	False
127.703	0.0	2Suff PseudoStemNW	24	127703	pipsonalize	0.0	1.0	False
129.128	0.0	1Suff w/o Lat.	12	129128	assertive	1.0	0.0	False
130.229	0.0	2Suff RealStemNW	25	130229	drunkoral	0.0	1.0	False
131.821	0.0	1Suff w/o Lat.	12	131821	collective	1.0	0.0	False
132.938	0.0	2Suff w/o Lat.	22	132938	significance	1.0	0.0	False
133.996	0.0	0Suff NW	4	133996	exprede	0.0	1.0	False
135.947	0.0	2Suff PseudoStemNW	24	135947	darberously	0.0	1.0	False
137.064	0.0	2Suff PseudoStemNW	24	137064	hettlessly	0.0	1.0	False
138.84	0.0	2Suff w/o Lat.	22	138840	hastily	1.0	0.0	False
140.257	0.0	1Suff w/o Lat.	12	140257	rightful	1.0	0.0	False
141.432	0.0	2Suff PseudoStemNW	24	141432	cronitionally	0.0	1.0	False
142.716	0.0	2Suff w/o Lat.	22	142716	breathlessly	1.0	0.0	False
144.375	0.0	2Suff PseudoStemNW	24	144375	rinchfully	0.0	1.0	False
145.55	0.0	1Suff RealStemNW	15	145550	perfectate	0.0	1.0	False
147.009	0.0	2Suff RealStemNW	25	147009	presumator	0.0	1.0	False
149.193	0.0	0Suff w/o Lat.	2	149193	cause	1.0	0.0	False
150.277	0.0	0Suff w/o Lat.	2	150277	pure	1.0	0.0	False
151.485	0.0	2Suff RealStemNW	25	151485	suitfulness	0.0	1.0	False
153.461	0.0	1Suff w/o Lat.	12	153461	kindly	1.0	0.0	False
154.486	0.0	0Suff w/o Lat.	2	154486	broke	1.0	0.0	False
155.503	0.0	2Suff RealStemNW	25	155503	tacticical	0.0	1.0	False
156.987	0.0	2Suff w/o Lat.	22	156987	sensuality	1.0	0.0	False
158.821	0.0	2Suff w/o Lat.	22	158821	kindliness	1.0	0.0	False
160.371	0.0	0Suff w/o Lat.	2	160371	care	1.0	0.0	False
161.422	0.0	0Suff NW	4	161422	creric	0.0	1.0	False
162.605	0.0	2Suff PseudoStemNW	24	162605	pimerfully	0.0	1.0	False
163.889	0.0	1Suff RealStemNW	15	163889	kinden	0.0	1.0	False
165.214	0.0	2Suff RealStemNW	25	165214	legalability	0.0	1.0	False
167.448	0.0	2Suff w/o Lat.	22	167448	brutality	1.0	0.0	False
168.724	0.0	2Suff w/o Lat.	22	168724	needlessly	1.0	0.0	False
170.399	0.0	2Suff PseudoStemNW	24	170399	feamfully	0.0	1.0	False
171.433	0.0	0Suff w/o Lat.	2	171433	comfort	1.0	0.0	False
172.892	0.0	2Suff RealStemNW	25	172892	farcally	0.0	1.0	False
174.025	0.0	1Suff RealStemNW	15	174025	careive	0.0	1.0	False
175.351	0.0	1Suff PseudoStemNW	14	175351	atstartive	0.0	1.0	False
176.593	0.0	2Suff RealStemNW	25	176593	breathiously	0.0	1.0	False
178.102	0.0	0Suff w/o Lat.	2	178102	optic	1.0	1.0	True
179.352	0.0	2Suff w/o Lat.	22	179352	artistic	1.0	0.0	False
180.644	0.0	1Suff RealStemNW	15	180644	mournive	0.0	1.0	False
181.853	0.0	1Suff w/o Lat.	12	181853	selective	1.0	0.0	False
182.97	0.0	2Suff RealStemNW	25	182970	useiously	0.0	1.0	False
209.17	0.0	1Suff w/o Lat.	12	209170	creative	1.0	0.0	False
210.212	0.0	1Suff RealStemNW	15	210212	needable	0.0	1.0	False
211.437	0.0	2Suff PseudoStemNW	24	211437	tistlessly	0.0	1.0	False
212.646	0.0	1Suff w/o Lat.	12	212646	customary	1.0	1.0	True
213.988	0.0	1Suff RealStemNW	15	213988	falsant	0.0	1.0	False
215.247	0.0	2Suff w/o Lat.	22	215247	nationalism	1.0	0.0	False
216.464	0.0	0Suff w/o Lat.	2	216464	noise	1.0	0.0	False
217.464	0.0	0Suff NW	4	217464	awn	0.0	1.0	False
218.464	0.0	2Suff w/o Lat.	22	218464	drunkenly	1.0	0.0	False
220.748	0.0	1Suff PseudoStemNW	14	220748	lokely	0.0	1.0	False
221.774	0.0	1Suff w/o Lat.	12	221774	senseless	1.0	0.0	False
223.157	0.0	1Suff PseudoStemNW	14	223157	selvual	0.0	1.0	False
224.241	0.0	2Suff w/o Lat.	22	224241	truthfully	1.0	0.0	False
225.333	0.0	1Suff w/o Lat.	12	225333	vaccinate	1.0	0.0	False
226.5	0.0	1Suff w/o Lat.	12	226500	breathless	1.0	0.0	False
227.5	0.0	0Suff NW	4	227500	vectue	0.0	1.0	False
228.984	0.0	1Suff PseudoStemNW	14	228984	awnist	0.0	1.0	False
230.209	0.0	2Suff w/o Lat.	22	230209	uselessly	1.0	1.0	True
232.377	0.0	0Suff w/o Lat.	2	232377	power	1.0	0.0	False
233.502	0.0	0Suff NW	4	233502	lurtile	0.0	1.0	False
234.961	0.0	1Suff PseudoStemNW	14	234961	ewilsence	0.0	1.0	False
236.203	0.0	2Suff RealStemNW	25	236203	sensator	0.0	1.0	False
237.478	0.0	1Suff w/o Lat.	12	237478	beautiful	1.0	0.0	False
238.595	0.0	1Suff PseudoStemNW	14	238595	sothodical	0.0	1.0	False
239.596	0.0	2Suff PseudoStemNW	24	239596	lokeliness	0.0	1.0	False
240.763	0.0	1Suff w/o Lat.	12	240763	tireless	1.0	1.0	True
242.163	0.0	2Suff RealStemNW	25	242163	selfiveness	0.0	1.0	False
243.514	0.0	2Suff w/o Lat.	22	243514	truthfulness	1.0	0.0	False
245.381	0.0	1Suff w/o Lat.	12	245381	regional	1.0	0.0	False
246.906	0.0	0Suff w/ Lat.	1	246906	compose	1.0	0.0	False
247.898	0.0	1Suff w/o Lat.	12	247898	wonderful	1.0	0.0	False
248.907	0.0	2Suff PseudoStemNW	24	248907	herfalist	0.0	1.0	False
249.941	0.0	2Suff RealStemNW	25	249941	dergadfully	0.0	1.0	False
251.024	0.0	2Suff w/o Lat.	22	251024	personality	1.0	0.0	False
252.866	0.0	1Suff w/o Lat.	12	252866	passionate	1.0	0.0	False
253.9	0.0	0Suff NW	4	253900	esress	0.0	1.0	False
254.892	0.0	1Suff PseudoStemNW	14	254892	shacten	0.0	1.0	False
255.876	0.0	2Suff RealStemNW	25	255876	alterlessly	0.0	1.0	False
256.851	0.0	1Suff PseudoStemNW	14	256851	londly	0.0	1.0	False
258.018	0.0	2Suff RealStemNW	25	258018	attentfully	0.0	1.0	False
259.285	0.0	1Suff PseudoStemNW	14	259285	obwertion	0.0	1.0	False
260.535	0.0	1Suff PseudoStemNW	14	260535	coyimal	0.0	1.0	False
261.477	0.0	1Suff RealStemNW	15	261477	confidious	0.0	1.0	False
262.903	0.0	2Suff w/o Lat.	22	262903	heroically	1.0	0.0	False
264.103	0.0	2Suff RealStemNW	25	264103	momentantly	0.0	0.0	True
265.404	0.0	2Suff Composite	23	265404	identical	1.0	0.0	False
266.546	0.0	0Suff NW	4	266546	contitum	0.0	1.0	False
267.688	0.0	2Suff w/o Lat.	22	267688	computerize	1.0		False
270.088	0.0	2Suff PseudoStemNW	24	270088	griedily	0.0	1.0	False
271.139	0.0	2Suff w/o Lat.	22	271139	sensibility	1.0	0.0	False
272.973	0.0	1Suff w/o Lat.	12	272973	noisy	1.0	0.0	False
273.99	0.0	0Suff w/o Lat.	2	273990	drunk	1.0	0.0	False
275.015	0.0	2Suff PseudoStemNW	24	275015	navounality	0.0	1.0	False
276.09	0.0	0Suff w/o Lat.	2	276090	act	1.0	0.0	False
277.182	0.0	0Suff NW	4	277182	inglinite	0.0	1.0	False
278.424	0.0	2Suff RealStemNW	25	278424	penalilessly	0.0	1.0	False
279.591	0.0	0Suff w/o Lat.	2	279591	end	1.0	0.0	False
280.692	0.0	2Suff PseudoStemNW	24	280692	arpivity	0.0	1.0	False
281.767	0.0	0Suff NW	4	281767	spip	0.0	1.0	False
282.801	0.0	2Suff w/o Lat.	22	282801	creatively	1.0	0.0	False
283.884	0.0	0Suff w/o Lat.	2	283884	truth	1.0	0.0	False
284.968	0.0	0Suff NW	4	284968	feal	0.0	1.0	False
286.177	0.0	1Suff w/ Lat.	11	286177	expression	1.0	0.0	False
287.194	0.0	1Suff RealStemNW	15	287194	collectful	0.0	1.0	False
288.794	0.0	2Suff w/o Lat.	22	288794	suitably	1.0	0.0	False
290.136	0.0	2Suff Composite	23	290136	maturation	1.0	1.0	True
291.837	0.0	2Suff PseudoStemNW	24	291837	inglinitional	0.0	1.0	False
293.329	0.0	2Suff w/o Lat.	22	293329	ownership	1.0	0.0	False
294.363	0.0	0Suff w/o Lat.	2	294363	fortune	1.0	0.0	False
295.571	0.0	2Suff RealStemNW	25	295571	synchronilessly	0.0	1.0	False
297.005	0.0	0Suff w/o Lat.	2	297005	industry	1.0	0.0	False
298.022	0.0	2Suff PseudoStemNW	24	298022	selvation	0.0	1.0	False
299.222	0.0	2Suff w/o Lat.	22	299222	activist	1.0	0.0	False
300.331	0.0	2Suff PseudoStemNW	24	300331	patudation	0.0	1.0	False
301.631	0.0	0Suff NW	4	301631	victap	0.0	1.0	False
302.807	0.0	2Suff w/o Lat.	22	302807	excellently	1.0	0.0	False
304.574	0.0	0Suff NW	4	304574	cutfure	0.0	1.0	False
305.741	0.0	1Suff w/o Lat.	12	305741	respective	1.0	0.0	False
307.492	0.0	2Suff RealStemNW	25	307492	criticical	0.0	0.0	True
308.692	0.0	1Suff PseudoStemNW	14	308692	onnention	0.0	1.0	False
309.801	0.0	0Suff NW	4	309801	faice	0.0	1.0	False
310.818	0.0	0Suff w/o Lat.	2	310818	region	1.0	0.0	False
312.118	0.0	2Suff w/o Lat.	22	312118	virtuosity	1.0	1.0	True
313.794	0.0	2Suff w/o Lat.	22	313794	humanistic	1.0	0.0	False
315.978	0.0	2Suff Composite	23	315978	degradation	1.0	0.0	False
317.753	0.0	0Suff w/o Lat.	2	317753	victim	1.0	0.0	False
318.862	0.0	1Suff w/o Lat.	12	318862	suitable	1.0	0.0	False
320.145	0.0	2Suff RealStemNW	25	320145	brutional	0.0	1.0	False
321.496	0.0	0Suff NW	4	321496	recrern	0.0	1.0	False
322.596	0.0	2Suff Composite	23	322596	nullification	1.0	1.0	True
323.788	0.0	0Suff w/o Lat.	2	323788	measure	1.0	0.0	False
325.189	0.0	1Suff w/o Lat.	12	325189	mournful	1.0	0.0	False
326.331	0.0	0Suff NW	4	326331	effern	0.0		False
328.723	0.0	1Suff w/ Lat.	11	328723	composite	1.0	0.0	False
329.773	0.0	1Suff w/o Lat.	12	329773	procedure	1.0	0.0	False
330.949	0.0	1Suff w/o Lat.	12	330949	optical	1.0	0.0	False
331.957	0.0	2Suff Composite	23	331957	computation	1.0	0.0	False
333.825	0.0	1Suff w/o Lat.	12	333825	merciful	1.0	0.0	False
334.85	0.0	2Suff w/o Lat.	22	334850	causality	1.0	0.0	False
336.05	0.0	2Suff RealStemNW	25	336050	nullifilessly	0.0	1.0	False
337.492	0.0	2Suff RealStemNW	25	337492	flexfulness	0.0		False
339.902	0.0	2Suff RealStemNW	25	339902	regionical	0.0	1.0	False
341.569	0.0	0Suff NW	4	341569	tist	0.0	1.0	False
342.819	0.0	2Suff RealStemNW	25	342819	instinctfully	0.0		False
345.22	0.0	1Suff w/o Lat.	12	345220	lucky	1.0	0.0	False
346.445	0.0	1Suff PseudoStemNW	14	346445	franical	0.0	1.0	False
348.413	0.0	1Suff w/ Lat.	11	348413	institution	1.0	0.0	False
349.971	0.0	2Suff PseudoStemNW	24	349971	efforniveness	0.0	1.0	False
351.238	0.0	1Suff w/o Lat.	12	351238	classic	1.0	0.0	False
352.53	0.0	2Suff w/o Lat.	22	352530	variability	1.0	0.0	False
354.073	0.0	2Suff PseudoStemNW	24	354073	blunkenness	0.0	1.0	False
356.44	0.0	2Suff RealStemNW	25	356440	feverality	0.0	1.0	False
357.749	0.0	2Suff RealStemNW	25	357749	magicical	0.0	1.0	False
359.341	0.0	0Suff w/o Lat.	2	359341	flex	1.0	0.0	False
360.541	0.0	2Suff PseudoStemNW	24	360541	fipitation	0.0	1.0	False
361.725	0.0	0Suff NW	4	361725	brealt	0.0	1.0	False
363.325	0.0	2Suff Composite	23	363325	farcical	1.0	1.0	True
364.551	0.0	0Suff NW	4	364551	herf	0.0	1.0	False
365.751	0.0	2Suff w/o Lat.	22	365751	variously	1.0	0.0	False
394.81	0.0	1Suff w/o Lat.	12	394810	methodical	1.0	1.0	True
396.652	0.0	1Suff PseudoStemNW	14	396652	desterful	0.0	1.0	False
397.728	0.0	2Suff w/o Lat.	22	397728	ceaselessly	1.0	1.0	True
399.437	0.0	0Suff w/ Lat.	1	399437	inspire	1.0	0.0	False
400.437	0.0	0Suff NW	4	400437	slex	0.0	1.0	False
401.546	0.0	0Suff NW	4	401546	simn	0.0	1.0	False
402.696	0.0	0Suff w/o Lat.	2	402696	help	1.0	1.0	True
403.83	0.0	2Suff w/ Lat.	21	403830	presumably	1.0	0.0	False
405.172	0.0	2Suff PseudoStemNW	24	405172	byvrical	0.0	1.0	False
406.155	0.0	2Suff w/ Lat.	21	406155	perfectionist	1.0	0.0	False
407.364	0.0	1Suff w/ Lat.	11	407364	provision	1.0	0.0	False
408.556	0.0	0Suff w/o Lat.	2	408556	mourn	1.0	0.0	False
410.332	0.0	1Suff w/o Lat.	12	410332	modernize	1.0	0.0	False
411.457	0.0	2Suff w/o Lat.	22	411457	nationalist	1.0	0.0	False
412.524	0.0	2Suff RealStemNW	25	412524	artional	0.0	1.0	False
413.908	0.0	0Suff NW	4	413908	franic	0.0	0.0	True
415.441	0.0	0Suff NW	4	415441	loke	0.0	1.0	False
417.142	0.0	1Suff PseudoStemNW	14	417142	recrernive	0.0	1.0	False
419.393	0.0	2Suff w/o Lat.	22	419393	stylistic	1.0	0.0	False
420.668	0.0	0Suff NW	4	420668	orn	0.0	1.0	False
421.893	0.0	2Suff w/o Lat.	22	421893	joyously	1.0	0.0	False
423.902	0.0	0Suff w/o Lat.	2	423902	wonder	1.0	0.0	False
424.861	0.0	1Suff w/o Lat.	12	424861	selfless	1.0	0.0	False
425.845	0.0	0Suff w/o Lat.	2	425845	exist	1.0	0.0	False
426.77	0.0	0Suff w/o Lat.	2	426770	class	1.0	0.0	False
427.704	0.0	1Suff PseudoStemNW	14	427704	awnful	0.0	1.0	False
429.154	0.0	0Suff w/o Lat.	2	429154	legal	1.0	0.0	False
430.404	0.0	2Suff RealStemNW	25	430404	heroliness	0.0	1.0	False
431.847	0.0	2Suff PseudoStemNW	24	431847	jistification	0.0	1.0	False
433.03	0.0	2Suff PseudoStemNW	24	433030	onwertionable	0.0	1.0	False
434.331	0.0	0Suff NW	4	434331	boofty	0.0	1.0	False
435.481	0.0	0Suff NW	4	435481	connurt	0.0	1.0	False
436.823	0.0	2Suff RealStemNW	25	436823	commerceantly	0.0	1.0	False
438.79	0.0	2Suff w/o Lat.	22	438790	vaccination	1.0	0.0	False
439.932	0.0	2Suff w/o Lat.	22	439932	effortlessly	1.0		False
442.341	0.0	2Suff w/o Lat.	22	442341	luckily	1.0	0.0	False
443.742	0.0	0Suff w/o Lat.	2	443742	proceed	1.0	0.0	False
445.042	0.0	2Suff w/o Lat.	22	445042	senselessly	1.0		False
447.443	0.0	1Suff w/ Lat.	11	447443	presumable	1.0	0.0	False
448.777	0.0	2Suff RealStemNW	25	448777	noticeator	0.0	1.0	False
450.269	0.0	1Suff PseudoStemNW	14	450269	simnify	0.0	1.0	False
451.853	0.0	1Suff PseudoStemNW	14	451853	ceantless	0.0	1.0	False
453.978	0.0	1Suff RealStemNW	15	453978	fertilist	0.0	1.0	False
455.654	0.0	2Suff w/o Lat.	22	455654	commercialism	1.0	0.0	False
457.671	0.0	1Suff PseudoStemNW	14	457671	arpive	0.0	1.0	False
458.83	0.0	0Suff w/o Lat.	2	458830	expand	1.0	0.0	False
460.039	0.0	0Suff w/o Lat.	2	460039	vary	1.0	0.0	False
461.056	0.0	2Suff RealStemNW	25	461056	commerceical	0.0	1.0	False
462.739	0.0	1Suff w/o Lat.	12	462739	joyful	1.0	0.0	False
463.665	0.0	2Suff PseudoStemNW	24	463665	arbumentative	0.0	1.0	False
464.673	0.0	2Suff PseudoStemNW	24	464673	utiethation	0.0	1.0	False
465.857	0.0	0Suff w/o Lat.	2	465857	sense	1.0	0.0	False
466.916	0.0	0Suff NW	4	466916	cedil	0.0	1.0	False
467.983	0.0	0Suff NW	4	467983	carsh	0.0	1.0	False
469.025	0.0	2Suff RealStemNW	25	469025	senseiously	0.0	1.0	False
470.242	0.0	0Suff NW	4	470242	prosood	0.0	1.0	False
471.5	0.0	2Suff PseudoStemNW	24	471500	booftifully	0.0	1.0	False
472.784	0.0	2Suff w/o Lat.	22	472784	foolishly	1.0	0.0	False
474.051	0.0	2Suff w/o Lat.	22	474051	classical	1.0	0.0	False
475.051	0.0	1Suff w/o Lat.	12	475051	sensible	1.0	0.0	False
475.993	0.0	1Suff PseudoStemNW	14	475993	exfallent	0.0	1.0	False
477.135	0.0	0Suff NW	4	477135	inflise	0.0	1.0	False
478.277	0.0	2Suff PseudoStemNW	24	478277	mymbolically	0.0	1.0	False
479.52	0.0	0Suff w/o Lat.	2	479520	confide	1.0	1.0	True
480.928	0.0	1Suff PseudoStemNW	14	480928	brukal	0.0	1.0	False
481.979	0.0	1Suff PseudoStemNW	14	481979	seetable	0.0	1.0	False
483.012	0.0	1Suff PseudoStemNW	14	483012	elpardive	0.0	1.0	False
484.229	0.0	1Suff w/o Lat.	12	484229	hasty	1.0	1.0	True
485.746	0.0	2Suff RealStemNW	25	485746	ordinfully	0.0	1.0	False
487.13	0.0	1Suff w/o Lat.	12	487130	ceaseless	1.0	1.0	True
488.281	0.0	0Suff NW	4	488281	colliff	0.0	1.0	False
489.731	0.0	2Suff w/o Lat.	22	489731	carefully	1.0	0.0	False
490.906	0.0	2Suff w/o Lat.	22	490906	comically	1.0	0.0	False
492.332	0.0	1Suff w/o Lat.	12	492332	confidence	1.0	0.0	False
493.482	0.0	2Suff RealStemNW	25	493482	embarkfully	0.0	0.0	True
495.449	0.0	2Suff Composite	23	495449	vulgarization	1.0	0.0	False
496.741	0.0	1Suff RealStemNW	15	496741	tacticic	0.0	1.0	False
498.075	0.0	0Suff w/o Lat.	2	498075	critic	1.0	0.0	False
499.259	0.0	2Suff RealStemNW	25	499259	purifilessly	0.0	1.0	False
500.443	0.0	2Suff w/ Lat.	21	500443	objectively	1.0	0.0	False
502.468	0.0	2Suff w/o Lat.	22	502468	symbolically	1.0	0.0	False
503.469	0.0	2Suff w/o Lat.	22	503469	customarily	1.0	1.0	True
504.844	0.0	0Suff w/o Lat.	2	504844	heart	1.0	0.0	False
505.869	0.0	2Suff w/o Lat.	22	505869	helplessly	1.0	0.0	False
507.028	0.0	0Suff NW	4	507028	comfern	0.0	1.0	False
508.912	0.0	0Suff w/o Lat.	2	508912	relent	1.0	1.0	True
510.271	0.0	0Suff NW	4	510271	sedule	0.0	1.0	False
511.429	0.0	0Suff NW	4	511429	selp	0.0	1.0	False
512.58	0.0	2Suff RealStemNW	25	512580	respectfully	0.0	0.0	True
514.055	0.0	0Suff NW	4	514055	indlidst	0.0	1.0	False
515.239	0.0	0Suff NW	4	515239	eschess	0.0	1.0	False
516.773	0.0	2Suff PseudoStemNW	24	516773	gunderfully	0.0	1.0	False
517.865	0.0	2Suff Composite	23	517865	annexation	1.0	0.0	False
519.265	0.0	1Suff RealStemNW	15	519265	assertful	0.0	0.0	True
521.032	0.0	2Suff PseudoStemNW	24	521032	abadilionist	0.0	1.0	False
522.291	0.0	2Suff Composite	23	522291	orientation	1.0	0.0	False
523.391	0.0	0Suff w/o Lat.	2	523391	cycle	1.0	0.0	False
524.492	0.0	2Suff PseudoStemNW	24	524492	flivitualize	0.0	1.0	False
525.467	0.0	0Suff w/o Lat.	2	525467	symbol	1.0	0.0	False
526.467	0.0	1Suff RealStemNW	15	526467	fortunion	0.0	0.0	True
527.876	0.0	2Suff RealStemNW	25	527876	signiousness	0.0	1.0	False
530.018	0.0	0Suff w/o Lat.	2	530018	breath	1.0	0.0	False
531.002	0.0	1Suff RealStemNW	15	531002	magicic	0.0	1.0	False
532.644	0.0	1Suff w/ Lat.	11	532644	excessive	1.0	1.0	True
534.687	0.0	2Suff RealStemNW	25	534687	assertishness	0.0	1.0	False
536.312	0.0	2Suff RealStemNW	25	536312	fooliveness	0.0	1.0	False
537.571	0.0	0Suff NW	4	537571	dester	0.0	1.0	False
539.43	0.0	2Suff RealStemNW	25	539430	exceptality	0.0	1.0	False
540.98	0.0	1Suff RealStemNW	15	540980	truthive	0.0	1.0	False
542.264	0.0	0Suff NW	4	542264	meleft	0.0	1.0	False
543.289	0.0	0Suff w/ Lat.	1	543289	exclude	1.0	0.0	False
545.048	0.0	1Suff RealStemNW	15	545048	continuic	0.0	1.0	False
547.374	0.0	1Suff PseudoStemNW	14	547374	rebuinal	0.0	1.0	False
548.941	0.0	0Suff NW	4	548941	rebuin	0.0		False
551.333	0.0	2Suff w/o Lat.	22	551333	helplessness	1.0	0.0	False
552.65	0.0	0Suff w/ Lat.	1	552650	perfect	1.0	0.0	False
553.659	0.0	2Suff w/ Lat.	21	553659	conductivity	1.0	0.0	False
554.984	0.0	2Suff w/o Lat.	22	554984	spiritualize	1.0	0.0	False
556.293	0.0	2Suff RealStemNW	25	556293	actality	0.0	1.0	False
588.553	0.0	0Suff NW	4	588553	elpard	0.0	1.0	False
589.553	0.0	2Suff PseudoStemNW	24	589553	comburation	0.0	1.0	False
590.654	0.0	0Suff w/o Lat.	2	590654	select	1.0	0.0	False
591.621	0.0	1Suff w/o Lat.	12	591621	cyclic	1.0	0.0	False
593.213	0.0	2Suff RealStemNW	25	593213	effortiously	0.0	1.0	False
594.522	0.0	0Suff NW	4	594522	hunen	0.0	1.0	False
595.522	0.0	1Suff w/ Lat.	11	595522	conductive	1.0	0.0	False
596.856	0.0	2Suff RealStemNW	25	596856	vulgarilessly	0.0	1.0	False
597.831	0.0	0Suff NW	4	597831	exfapt	0.0	1.0	False
598.965	0.0	0Suff NW	4	598965	traphet	0.0	1.0	False
599.957	0.0	1Suff w/o Lat.	12	599957	purify	1.0	1.0	True
601.04	0.0	2Suff w/o Lat.	22	601040	regionally	1.0	0.0	False
602.107	0.0	2Suff w/o Lat.	22	602107	culturally	1.0	0.0	False
603.341	0.0	2Suff w/o Lat.	22	603341	argumentative	1.0	0.0	False
604.483	0.0	2Suff PseudoStemNW	24	604483	comborition	0.0	1.0	False
605.608	0.0	2Suff RealStemNW	25	605608	actfully	0.0	1.0	False
607.159	0.0	0Suff w/o Lat.	2	607159	admire	1.0	0.0	False
608.276	0.0	2Suff Composite	23	608276	allegorical	1.0	1.0	True
610.335	0.0	0Suff w/o Lat.	2	610335	herb	1.0	0.0	False
612.06	0.0	0Suff w/o Lat.	2	612060	dread	1.0	0.0	False
613.144	0.0	2Suff PseudoStemNW	24	613144	lurtilizer	0.0	1.0	False
614.344	0.0	2Suff w/o Lat.	22	614344	clinically	1.0		False
616.737	0.0	2Suff RealStemNW	25	616737	whimsally	0.0	1.0	False
618.02	0.0	0Suff w/o Lat.	2	618020	monument	1.0	0.0	False
619.196	0.0	1Suff w/o Lat.	12	619196	dangerous	1.0	0.0	False
620.154	0.0	2Suff PseudoStemNW	24	620154	vetcination	0.0	1.0	False
621.455	0.0	2Suff PseudoStemNW	24	621455	flivitualism	0.0	1.0	False
623.447	0.0	0Suff w/o Lat.	2	623447	civil	1.0	0.0	False
624.573	0.0	1Suff RealStemNW	15	624573	conclusful	0.0	1.0	False
625.948	0.0	2Suff w/o Lat.	22	625948	selectivity	1.0	0.0	False
627.582	0.0	0Suff w/o Lat.	2	627582	luck	1.0	0.0	False
628.715	0.0	1Suff w/ Lat.	11	628715	objective	1.0	0.0	False
629.791	0.0	0Suff NW	4	629791	coatage	0.0	1.0	False
630.899	0.0	2Suff RealStemNW	25	630899	quizzally	0.0	1.0	False
632.608	0.0	2Suff PseudoStemNW	24	632608	soripsistic	0.0	1.0	False
633.7	0.0	2Suff RealStemNW	25	633700	intentality	0.0	1.0	False
634.842	0.0	2Suff w/o Lat.	22	634842	collectively	1.0	0.0	False
636.326	0.0	2Suff w/ Lat.	21	636326	inspirational	1.0	0.0	False
638.068	0.0	2Suff RealStemNW	25	638068	nationical	0.0	1.0	False
639.569	0.0	2Suff RealStemNW	25	639569	classally	0.0	0.0	True
640.727	0.0	0Suff NW	4	640727	combore	0.0	1.0	False
641.811	0.0	2Suff PseudoStemNW	24	641811	fortorately	0.0	1.0	False
642.928	0.0	1Suff w/o Lat.	12	642928	admirable	1.0	0.0	False
644.287	0.0	2Suff RealStemNW	25	644287	creatously	0.0	1.0	False
646.446	0.0	2Suff Composite	23	646446	solipsistic	1.0	1.0	True
647.455	0.0	0Suff NW	4	647455	luds	0.0	1.0	False
649.18	0.0	2Suff w/o Lat.	22	649180	herbalist	1.0	1.0	True
651.406	0.0	0Suff NW	4	651406	onnend	0.0	1.0	False
652.498	0.0	2Suff w/ Lat.	21	652498	conclusively	1.0	0.0	False
654.457	0.0	1Suff PseudoStemNW	14	654457	indlidstive	0.0	1.0	False
655.54	0.0	0Suff w/ Lat.	1	655540	excess	1.0	0.0	False
656.607	0.0	1Suff w/o Lat.	12	656607	artful	1.0	0.0	False
658.666	0.0	1Suff w/o Lat.	12	658666	noticeable	1.0	0.0	False
660.659	0.0	0Suff w/o Lat.	2	660659	fear	1.0	0.0	False
661.667	0.0	2Suff PseudoStemNW	24	661667	trithfully	0.0	1.0	False
663.059	0.0	2Suff Composite	23	663059	solidification	1.0	1.0	True
664.185	0.0	1Suff w/o Lat.	12	664185	joyous	1.0	0.0	False
665.343	0.0	2Suff w/o Lat.	22	665343	magically	1.0	0.0	False
666.477	0.0	2Suff RealStemNW	25	666477	excessfully	0.0	1.0	False
668.294	0.0	0Suff NW	4	668294	pimer	0.0	1.0	False
669.461	0.0	1Suff w/o Lat.	12	669461	lovely	1.0	0.0	False
670.678	0.0	0Suff w/o Lat.	2	670678	danger	1.0	0.0	False
671.679	0.0	2Suff w/o Lat.	22	671679	heartily	1.0	1.0	True
673.929	0.0	0Suff w/o Lat.	2	673929	argue	1.0	0.0	False
675.338	0.0	1Suff RealStemNW	15	675338	conductful	0.0	0.0	True
676.564	0.0	2Suff RealStemNW	25	676564	prophetionist	0.0	1.0	False
678.781	0.0	0Suff NW	4	678781	shact	0.0	0.0	True
680.648	0.0	1Suff w/o Lat.	12	680648	justify	1.0	0.0	False
682.632	0.0	2Suff w/ Lat.	21	682632	expressionism	1.0	0.0	False
683.866	0.0	2Suff PseudoStemNW	24	683866	prosodural	0.0	1.0	False
685.4	0.0	2Suff w/o Lat.	22	685400	expansiveness	1.0		False
687.8	0.0	2Suff w/o Lat.	22	687800	prophetically	1.0	1.0	True
689.242	0.0	1Suff RealStemNW	15	689242	modernate	0.0	0.0	True
691.026	0.0	2Suff PseudoStemNW	24	691026	faicification	0.0	1.0	False
692.31	0.0	0Suff w/o Lat.	2	692310	second	1.0	0.0	False
694.344	0.0	1Suff PseudoStemNW	14	694344	prosodure	0.0	1.0	False
695.394	0.0	2Suff w/ Lat.	21	695394	objectionable	1.0	1.0	True
696.903	0.0	1Suff w/o Lat.	12	696903	active	1.0	0.0	False
698.062	0.0	2Suff w/ Lat.	21	698062	provisional	1.0	0.0	False
699.204	0.0	1Suff RealStemNW	15	699204	exclusful	0.0	1.0	False
700.354	0.0	1Suff w/o Lat.	12	700354	effortless	1.0	0.0	False
701.354	0.0	1Suff RealStemNW	15	701354	fruitable	0.0	0.0	True
702.597	0.0	2Suff w/o Lat.	22	702597	nationality	1.0	1.0	True
704.28	0.0	2Suff Composite	23	704280	hierarchical	1.0	0.0	False
705.439	0.0	0Suff NW	4	705439	flivit	0.0	1.0	False
706.906	0.0	2Suff PseudoStemNW	24	706906	ludsily	0.0	1.0	False
708.173	0.0	0Suff w/o Lat.	2	708173	compare	1.0		False
710.574	0.0	2Suff PseudoStemNW	24	710574	andezation	0.0	1.0	False
711.733	0.0	2Suff RealStemNW	25	711733	selectfully	0.0	0.0	True
712.775	0.0	0Suff NW	4	712775	lond	0.0	1.0	False
713.925	0.0	1Suff PseudoStemNW	14	713925	precukable	0.0	1.0	False
715.017	0.0	0Suff w/o Lat.	2	715017	attract	1.0	0.0	False
716.176	0.0	2Suff RealStemNW	25	716176	brokiness	0.0	1.0	False
717.651	0.0	1Suff PseudoStemNW	14	717651	selveless	0.0	0.0	True
718.701	0.0	0Suff NW	4	718701	mympol	0.0		False
721.102	0.0	0Suff w/o Lat.	2	721102	mercy	1.0	0.0	False
722.069	0.0	1Suff PseudoStemNW	14	722069	flivitual	0.0	1.0	False
723.245	0.0	1Suff w/ Lat.	11	723245	exception	1.0	1.0	True
725.037	0.0	1Suff w/o Lat.	12	725037	spiritual	1.0	0.0	False
726.295	0.0	0Suff NW	4	726295	conwode	0.0	1.0	False
727.496	0.0	0Suff NW	4	727496	combure	0.0	1.0	False
728.713	0.0	2Suff Composite	23	728713	valuation	1.0	0.0	False
730.288	0.0	2Suff PseudoStemNW	24	730288	spippery	0.0	1.0	False
731.605	0.0	2Suff Composite	23	731605	paradoxical	1.0	0.0	False
733.173	0.0	2Suff w/o Lat.	22	733173	selflessness	1.0	0.0	False
734.14	0.0	2Suff w/o Lat.	22	734140	commercially	1.0	0.0	False
735.265	0.0	2Suff w/ Lat.	21	735265	intentional	1.0	0.0	False
736.349	0.0	2Suff PseudoStemNW	24	736349	mourdfully	0.0	0.0	True
737.741	0.0	2Suff w/o Lat.	22	737741	dreadfully	1.0	1.0	True
738.724	0.0	2Suff PseudoStemNW	24	738724	rincheousness	0.0	1.0	False
740.525	0.0	2Suff w/ Lat.	21	740525	effectiveness	1.0	0.0	False
741.792	0.0	0Suff NW	4	741792	jany	0.0	1.0	False
742.859	0.0	2Suff PseudoStemNW	24	742859	coyimally	0.0	1.0	False
743.851	0.0	2Suff w/o Lat.	22	743851	noticeably	1.0	0.0	False
745.276	0.0	2Suff PseudoStemNW	24	745276	canklessly	0.0	1.0	False
746.893	0.0	0Suff NW	4	746893	navoun	0.0	1.0	False
748.669	0.0	0Suff w/o Lat.	2	748669	custom	1.0	0.0	False
749.894	0.0	1Suff RealStemNW	15	749894	humanify	0.0	1.0	False
752.028	0.0	1Suff PseudoStemNW	14	752028	arbument	0.0	1.0	False
805.645	0.0	2Suff PseudoStemNW	24	805645	murpilessly	0.0	1.0	False
806.72	0.0	0Suff w/o Lat.	2	806720	commerce	1.0	0.0	False
807.896	0.0	2Suff w/o Lat.	22	807896	preferably	1.0	0.0	False
809.93	0.0	0Suff NW	4	809930	indolsty	0.0	1.0	False
811.063	0.0	2Suff w/o Lat.	22	811063	fearfully	1.0	0.0	False
812.564	0.0	0Suff w/o Lat.	2	812564	kind	1.0	0.0	False
813.581	0.0	1Suff w/o Lat.	12	813581	slipper	1.0	1.0	True
814.689	0.0	1Suff w/o Lat.	12	814689	careless	1.0	0.0	False
815.806	0.0	2Suff PseudoStemNW	24	815806	paragewical	0.0	1.0	False
817.007	0.0	1Suff RealStemNW	15	817007	relentable	0.0	0.0	True
818.599	0.0	0Suff NW	4	818599	provace	0.0	1.0	False
819.933	0.0	0Suff w/o Lat.	2	819933	fever	1.0	0.0	False
821.083	0.0	2Suff RealStemNW	25	821083	signmentive	0.0	1.0	False
822.733	0.0	2Suff RealStemNW	25	822733	hastery	0.0	1.0	False
823.909	0.0	1Suff PseudoStemNW	14	823909	comburer	0.0	1.0	False
824.984	0.0	0Suff w/o Lat.	2	824984	tradition	1.0	0.0	False
826.009	0.0	1Suff PseudoStemNW	14	826009	selvible	0.0	1.0	False
827.21	0.0	1Suff w/o Lat.	12	827210	legalize	1.0	0.0	False
828.302	0.0	2Suff PseudoStemNW	24	828302	sedulation	0.0	1.0	False
829.702	0.0	0Suff NW	4	829702	retend	0.0	1.0	False
830.986	0.0	0Suff NW	4	830986	perfall	0.0	1.0	False
832.161	0.0	0Suff NW	4	832161	massien	0.0	1.0	False
833.195	0.0	2Suff w/o Lat.	22	833195	attractively	1.0	0.0	False
834.429	0.0	2Suff w/o Lat.	22	834429	passionately	1.0	0.0	False
835.604	0.0	1Suff w/o Lat.	12	835604	artist	1.0	0.0	False
836.579	0.0	1Suff w/o Lat.	12	836579	tactical	1.0	0.0	False
837.721	0.0	2Suff w/o Lat.	22	837721	monumentally	1.0	0.0	False
838.963	0.0	2Suff RealStemNW	25	838963	identifilessly	0.0	1.0	False
840.181	0.0	1Suff RealStemNW	15	840181	careable	0.0	1.0	False
841.573	0.0	0Suff w/o Lat.	2	841573	effort	1.0	0.0	False
843.398	0.0	2Suff RealStemNW	25	843398	industriantly	0.0	1.0	False
844.715	0.0	1Suff RealStemNW	15	844715	selfable	0.0	0.0	True
846.149	0.0	0Suff NW	4	846149	excrode	0.0		False
848.541	0.0	2Suff PseudoStemNW	24	848541	effornively	0.0	1.0	False
849.75	0.0	2Suff Composite	23	849750	synchronization	1.0	0.0	False
850.976	0.0	1Suff RealStemNW	15	850976	comparatful	0.0		False
853.376	0.0	1Suff w/o Lat.	12	853376	preferable	1.0	0.0	False
855.077	0.0	1Suff w/o Lat.	12	855077	feverish	1.0	0.0	False
856.235	0.0	2Suff w/o Lat.	22	856235	rightfully	1.0	0.0	False
857.461	0.0	0Suff NW	4	857461	cuppom	0.0	1.0	False
858.511	0.0	0Suff NW	4	858511	sarument	0.0	1.0	False
860.012	0.0	2Suff w/o Lat.	22	860012	spirituality	1.0	0.0	False
861.245	0.0	2Suff PseudoStemNW	24	861245	jokfully	0.0	0.0	True
862.429	0.0	2Suff w/o Lat.	22	862429	activity	1.0	0.0	False
864.263	0.0	1Suff w/o Lat.	12	864263	truthful	1.0	0.0	False
865.33	0.0	1Suff PseudoStemNW	14	865330	lumsy	0.0	1.0	False
866.655	0.0	1Suff RealStemNW	15	866655	virtance	0.0	1.0	False
867.764	0.0	1Suff w/o Lat.	12	867764	measurable	1.0	0.0	False
869.056	0.0	2Suff PseudoStemNW	24	869056	retendlessly	0.0		False
871.457	0.0	0Suff NW	4	871457	nolfs	0.0	1.0	False
872.774	0.0	2Suff PseudoStemNW	24	872774	melidification	0.0	1.0	False
874.124	0.0	0Suff w/o Lat.	2	874124	spirit	1.0	0.0	False
875.266	0.0	2Suff Composite	23	875266	whimsical	1.0		False
877.675	0.0	0Suff w/o Lat.	2	877675	tactic	1.0	0.0	False
878.817	0.0	2Suff w/o Lat.	22	878817	critically	1.0	0.0	False
880.101	0.0	0Suff w/ Lat.	1	880101	object	1.0	0.0	False
881.477	0.0	0Suff NW	4	881477	jist	0.0	1.0	False
882.744	0.0	0Suff NW	4	882744	arp	0.0	0.0	True
884.578	0.0	1Suff PseudoStemNW	14	884578	coatageous	0.0		False
886.97	0.0	1Suff w/o Lat.	12	886970	humanist	1.0		False
889.379	0.0	1Suff w/ Lat.	11	889379	conclusive	1.0	0.0	False
890.446	0.0	0Suff NW	4	890446	nolave	0.0	1.0	False
891.48	0.0	2Suff Composite	23	891480	purification	1.0	0.0	False
892.863	0.0	1Suff w/o Lat.	12	892863	relentless	1.0	0.0	False
894.447	0.0	0Suff w/o Lat.	2	894447	assert	1.0	0.0	False
896.423	0.0	2Suff w/ Lat.	21	896423	excessively	1.0	0.0	False
897.498	0.0	0Suff w/o Lat.	2	897498	human	1.0	0.0	False
899.057	0.0	1Suff RealStemNW	15	899057	flexless	0.0	1.0	False
900.399	0.0	2Suff w/o Lat.	22	900399	endlessly	1.0	0.0	False
901.799	0.0	0Suff w/o Lat.	2	901799	self	1.0	0.0	False
903.033	0.0	2Suff w/o Lat.	22	903033	dangerously	1.0	1.0	True
904.209	0.0	2Suff RealStemNW	25	904209	fertilability	0.0	1.0	False
906.326	0.0	2Suff w/o Lat.	22	906326	slippery	1.0	0.0	False
907.635	0.0	0Suff w/o Lat.	2	907635	fruit	1.0	0.0	False
908.602	0.0	2Suff w/o Lat.	22	908602	artfully	1.0	1.0	True
910.761	0.0	1Suff PseudoStemNW	14	910761	expredive	0.0	1.0	False
912.586	0.0	0Suff w/o Lat.	2	912586	instinct	1.0	0.0	False
914.012	0.0	1Suff w/o Lat.	12	914012	various	1.0	0.0	False
916.004	0.0	1Suff PseudoStemNW	14	916004	omlical	0.0	1.0	False
917.088	0.0	0Suff NW	4	917088	blunk	0.0	1.0	False
918.405	0.0	2Suff RealStemNW	25	918405	clinicical	0.0		False
920.805	0.0	2Suff RealStemNW	25	920805	humanional	0.0	1.0	False
922.147	0.0	0Suff NW	4	922147	haint	0.0	1.0	False
923.289	0.0	0Suff w/ Lat.	1	923289	conduct	1.0	0.0	False
924.44	0.0	2Suff Composite	23	924440	embarkation	1.0	1.0	True
925.348	0.0	0Suff w/o Lat.	2	925348	vaccine	1.0	0.0	False
926.315	0.0	1Suff RealStemNW	15	926315	classal	0.0	1.0	False
927.549	0.0	0Suff w/o Lat.	2	927549	tire	1.0	1.0	True
928.708	0.0	1Suff PseudoStemNW	14	928708	herfal	0.0	1.0	False
929.658	0.0	1Suff PseudoStemNW	14	929658	mocondary	0.0	1.0	False
930.833	0.0	0Suff w/o Lat.	2	930833	notice	1.0	0.0	False
932.159	0.0	2Suff w/o Lat.	22	932159	carelessly	1.0	0.0	False
933.576	0.0	0Suff NW	4	933576	movect	0.0		False
935.968	0.0	2Suff Composite	23	935968	penalization	1.0	0.0	False
937.269	0.0	1Suff w/o Lat.	12	937269	causal	1.0	0.0	False
938.319	0.0	1Suff w/o Lat.	12	938319	lusty	1.0	0.0	False
939.686	0.0	0Suff w/o Lat.	2	939686	cease	1.0	0.0	False
940.962	0.0	0Suff w/ Lat.	1	940962	explode	1.0	0.0	False
942.279	0.0	1Suff RealStemNW	15	942279	institutate	0.0	0.0	True
943.604	0.0	1Suff RealStemNW	15	943604	preferless	0.0	1.0	False
945.855	0.0	1Suff RealStemNW	15	945855	commerceic	0.0	1.0	False
947.313	0.0	2Suff PseudoStemNW	24	947313	massienately	0.0	1.0	False
948.547	0.0	1Suff w/o Lat.	12	948547	lonely	1.0	0.0	False
949.606	0.0	2Suff PseudoStemNW	24	949606	cankfully	0.0	1.0	False
951.748	0.0	2Suff w/o Lat.	22	951748	justifiable	1.0	0.0	False
952.999	0.0	1Suff PseudoStemNW	14	952999	gunderful	0.0	1.0	False
954.282	0.0	0Suff w/o Lat.	2	954282	greed	1.0	0.0	False
955.283	0.0	2Suff w/o Lat.	22	955283	relentlessly	1.0	0.0	False
956.366	0.0	1Suff PseudoStemNW	14	956366	cuppomary	0.0	1.0	False
957.583	0.0	0Suff w/o Lat.	2	957583	just	1.0	0.0	False
958.634	0.0	1Suff w/o Lat.	12	958634	owner	1.0	0.0	False
959.709	0.0	2Suff RealStemNW	25	959709	unifilessly	0.0	1.0	False
960.768	0.0	1Suff PseudoStemNW	14	960768	vetcinate	0.0	1.0	False
962.818	0.0	2Suff RealStemNW	25	962818	actional	0.0	0.0	True
963.952	0.0	1Suff PseudoStemNW	14	963952	eschession	0.0	1.0	False
964.977	0.0	2Suff w/o Lat.	22	964977	powerfully	1.0	0.0	False
966.669	0.0	2Suff RealStemNW	25	966669	opticical	0.0	0.0	True
968.27	0.0	2Suff PseudoStemNW	24	968270	shactener	0.0	1.0	False
969.387	0.0	1Suff w/ Lat.	11	969387	effective	1.0	0.0	False
1028.88	0.0	0Suff NW	4	1028880	trith	0.0	1.0	False
1029.947	0.0	2Suff PseudoStemNW	24	1029947	connurtivity	0.0	1.0	False
1030.981	0.0	0Suff w/o Lat.	2	1030981	module	1.0	0.0	False
1032.023	0.0	2Suff w/o Lat.	22	1032023	actively	1.0	0.0	False
1032.957	0.0	2Suff Composite	23	1032957	quizzical	1.0	1.0	True
1034.265	0.0	1Suff w/o Lat.	12	1034265	attentive	1.0	0.0	False
1035.432	0.0	2Suff w/o Lat.	22	1035432	traditionally	1.0	0.0	False
1037.166	0.0	1Suff RealStemNW	15	1037166	selfory	0.0	1.0	False
1038.2	0.0	2Suff RealStemNW	25	1038200	explosfully	0.0	1.0	False
1039.45	0.0	0Suff NW	4	1039450	conspode	0.0	1.0	False
1040.459	0.0	1Suff PseudoStemNW	14	1040459	broler	0.0	1.0	False
1041.459	0.0	0Suff w/o Lat.	2	1041459	lone	1.0	1.0	True
1042.409	0.0	0Suff NW	4	1042409	kibs	0.0	1.0	False
1043.435	0.0	1Suff PseudoStemNW	14	1043435	ludsy	0.0	1.0	False
1044.427	0.0	1Suff w/ Lat.	11	1044427	perfection	1.0	0.0	False
1045.377	0.0	2Suff w/ Lat.	21	1045377	explosively	1.0	0.0	False
1046.844	0.0	2Suff RealStemNW	25	1046844	sensfulness	0.0	0.0	True
1048.245	0.0	2Suff RealStemNW	25	1048245	customantly	0.0	1.0	False
1049.628	0.0	0Suff NW	4	1049628	ewils	0.0	1.0	False
1050.612	0.0	1Suff w/o Lat.	12	1050612	foolish	1.0	0.0	False
1051.812	0.0	0Suff NW	4	1051812	tedal	0.0	1.0	False
1053.204	0.0	2Suff PseudoStemNW	24	1053204	flivituality	0.0	1.0	False
1055.155	0.0	2Suff RealStemNW	25	1055155	admirical	0.0	1.0	False
1056.63	0.0	2Suff PseudoStemNW	24	1056630	excrodiveness	0.0	1.0	False
1058.381	0.0	1Suff PseudoStemNW	14	1058381	hainy	0.0	1.0	False
1059.423	0.0	2Suff PseudoStemNW	24	1059423	conwodential	0.0	1.0	False
1060.448	0.0	0Suff NW	4	1060448	mourd	0.0	1.0	False
1061.507	0.0	0Suff NW	4	1061507	rinch	0.0	1.0	False
1063.316	0.0	1Suff PseudoStemNW	14	1063316	pipsonal	0.0	1.0	False
1064.266	0.0	1Suff w/ Lat.	11	1064266	exclusive	1.0	0.0	False
1065.316	0.0	1Suff RealStemNW	15	1065316	victimist	0.0	0.0	True
1066.517	0.0	1Suff PseudoStemNW	14	1066517	inflisation	0.0	1.0	False
1067.617	0.0	1Suff w/ Lat.	11	1067617	objection	1.0	0.0	False
1069.001	0.0	1Suff PseudoStemNW	14	1069001	jokous	0.0	1.0	False
1070.435	0.0	2Suff RealStemNW	25	1070435	valufully	0.0	1.0	False
1071.752	0.0	2Suff w/o Lat.	22	1071752	optically	1.0	0.0	False
1072.969	0.0	1Suff PseudoStemNW	14	1072969	movectize	0.0	1.0	False
1074.169	0.0	1Suff RealStemNW	15	1074169	creatful	0.0	0.0	True
1075.861	0.0	1Suff RealStemNW	15	1075861	civilist	0.0	0.0	True
1077.245	0.0	0Suff NW	4	1077245	clade	0.0	1.0	False
1078.262	0.0	2Suff PseudoStemNW	24	1078262	moolurably	0.0	1.0	False
1079.429	0.0	0Suff NW	4	1079429	ceant	0.0	1.0	False
1080.421	0.0	1Suff w/o Lat.	12	1080421	expansive	1.0	0.0	False
1082.355	0.0	1Suff w/o Lat.	12	1082355	existence	1.0	0.0	False
1083.58	0.0	2Suff PseudoStemNW	24	1083580	cutfurally	0.0	1.0	False
1084.722	0.0	0Suff w/o Lat.	2	1084722	modern	1.0	0.0	False
1085.831	0.0	2Suff w/o Lat.	22	1085831	falsification	1.0	0.0	False
1086.94	0.0	1Suff RealStemNW	15	1086940	justant	0.0	1.0	False
1088.407	0.0	2Suff PseudoStemNW	24	1088407	sothodically	0.0	1.0	False
1089.949	0.0	0Suff w/o Lat.	2	1089949	comic	1.0	0.0	False
1091.099	0.0	2Suff w/o Lat.	22	1091099	helpfully	1.0	0.0	False
1092.925	0.0	2Suff RealStemNW	25	1092925	identally	0.0	1.0	False
1094.942	0.0	1Suff w/o Lat.	12	1094942	sharpen	1.0	1.0	True
1095.851	0.0	0Suff NW	4	1095851	hett	0.0	0.0	True
1096.876	0.0	0Suff NW	4	1096876	freat	0.0	1.0	False
1098.068	0.0	1Suff RealStemNW	15	1098068	drunkor	0.0	1.0	False
1099.094	0.0	0Suff NW	4	1099094	cank	0.0	1.0	False
1100.152	0.0	0Suff NW	4	1100152	darber	0.0	1.0	False
1101.186	0.0	2Suff PseudoStemNW	24	1101186	eschessionist	0.0	1.0	False
1102.578	0.0	0Suff NW	4	1102578	adnise	0.0	1.0	False
1103.812	0.0	1Suff PseudoStemNW	14	1103812	nolfy	0.0	1.0	False
1104.979	0.0	0Suff w/o Lat.	2	1104979	passion	1.0	0.0	False
1105.937	0.0	2Suff RealStemNW	25	1105937	lustery	0.0	0.0	True
1107.346	0.0	1Suff RealStemNW	15	1107346	variment	0.0	0.0	True
1108.705	0.0	2Suff PseudoStemNW	24	1108705	pipsonally	0.0	0.0	True
1110.555	0.0	0Suff w/o Lat.	2	1110555	culture	1.0	0.0	False
1111.706	0.0	1Suff PseudoStemNW	14	1111706	mymbolic	0.0	1.0	False
1112.864	0.0	1Suff w/ Lat.	11	1112864	explosive	1.0	0.0	False
1114.04	0.0	2Suff w/o Lat.	22	1114040	tirelessly	1.0	1.0	True
1115.173	0.0	2Suff w/o Lat.	22	1115173	sensibly	1.0	1.0	True
1116.824	0.0	1Suff PseudoStemNW	14	1116824	rinchful	0.0	1.0	False
1117.974	0.0	0Suff w/o Lat.	2	1117974	sharp	1.0	0.0	False
1119.125	0.0	2Suff w/o Lat.	22	1119125	existential	1.0	0.0	False
1120.275	0.0	2Suff PseudoStemNW	24	1120275	kibsliness	0.0	1.0	False
1121.25	0.0	1Suff RealStemNW	15	1121250	tireable	0.0	1.0	False
1122.684	0.0	1Suff RealStemNW	15	1122684	modulion	0.0	1.0	False
1123.851	0.0	2Suff PseudoStemNW	24	1123851	pipsonality	0.0	1.0	False
1125.285	0.0	1Suff w/o Lat.	12	1125285	broker	1.0	0.0	False
1126.327	0.0	1Suff w/o Lat.	12	1126327	victimize	1.0	0.0	False
1127.561	0.0	1Suff w/o Lat.	12	1127561	drunken	1.0	0.0	False
1128.611	0.0	2Suff w/o Lat.	22	1128611	modulation	1.0	0.0	False
1129.661	0.0	0Suff w/o Lat.	2	1129661	create	1.0	0.0	False
1130.57	0.0	1Suff RealStemNW	15	1130570	nationic	0.0	0.0	True
1131.679	0.0	2Suff RealStemNW	25	1131679	objectfully	0.0	0.0	True
1133.137	0.0	0Suff w/o Lat.	2	1133137	magic	1.0	0.0	False
1134.946	0.0	2Suff RealStemNW	25	1134946	brutantly	0.0	1.0	False
1137.114	0.0	2Suff w/o Lat.	22	1137114	modernization	1.0	0.0	False
1138.172	0.0	0Suff NW	4	1138172	moolure	0.0	1.0	False
1139.248	0.0	0Suff w/o Lat.	2	1139248	person	1.0	0.0	False
1140.248	0.0	2Suff PseudoStemNW	24	1140248	jistifiable	0.0	1.0	False
1141.423	0.0	2Suff PseudoStemNW	24	1141423	atstartively	0.0	1.0	False
1142.415	0.0	1Suff w/o Lat.	12	1142415	magical	1.0	0.0	False
1143.491	0.0	2Suff w/o Lat.	22	1143491	sharpener	1.0	0.0	False
1144.858	0.0	1Suff RealStemNW	15	1144858	slippor	0.0	0.0	True
1146.525	0.0	1Suff PseudoStemNW	14	1146525	griedy	0.0	1.0	False
1147.859	0.0	0Suff w/o Lat.	2	1147859	collect	1.0	0.0	False
1148.934	0.0	0Suff NW	4	1148934	copperce	0.0	0.0	True
1150.734	0.0	2Suff w/ Lat.	21	1150734	institutional	1.0	0.0	False
1152.026	0.0	2Suff w/o Lat.	22	1152026	methodically	1.0	0.0	False
1153.319	0.0	0Suff w/ Lat.	1	1153319	provide	1.0	0.0	False
1155.469	0.0	2Suff RealStemNW	25	1155469	commerceional	0.0	1.0	False
1156.995	0.0	2Suff RealStemNW	25	1156995	continliness	0.0	1.0	False
1158.053	0.0	2Suff w/ Lat.	21	1158053	exclusively	1.0	0.0	False
1159.287	0.0	1Suff RealStemNW	15	1159287	powerive	0.0	1.0	False
1160.554	0.0	0Suff w/o Lat.	2	1160554	prophet	1.0	0.0	False
1161.629	0.0	1Suff PseudoStemNW	14	1161629	darberous	0.0	1.0	False
1163.405	0.0	1Suff w/o Lat.	12	1163405	selfish	1.0	0.0	False
1164.939	0.0	1Suff PseudoStemNW	14	1164939	rincheous	0.0	1.0	False
1166.539	0.0	1Suff RealStemNW	15	1166539	cyclal	0.0	1.0	False
1167.748	0.0	0Suff NW	4	1167748	lecer	0.0	1.0	False
1169.599	0.0	1Suff w/o Lat.	12	1169599	helpless	1.0	0.0	False
1170.891	0.0	1Suff RealStemNW	15	1170891	noticeless	0.0	1.0	False
1172.591	0.0	2Suff w/o Lat.	22	1172591	foolishness	1.0	0.0	False
1174.042	0.0	2Suff RealStemNW	25	1174042	fruitiously	0.0	0.0	True
1176.101	0.0	1Suff w/o Lat.	12	1176101	personal	1.0	0.0	False
1176.959	0.0	1Suff RealStemNW	15	1176959	effectful	0.0	0.0	True
1178.201	0.0	2Suff RealStemNW	25	1178201	masterively	0.0	0.0	True
1180.31	0.0	1Suff RealStemNW	15	1180310	industryic	0.0	1.0	False
1181.469	0.0	1Suff RealStemNW	15	1181469	effortable	0.0	1.0	False
1231.434	0.0	2Suff RealStemNW	25	1231434	inspiratality	0.0	1.0	False
1233.36	0.0	2Suff PseudoStemNW	24	1233360	sarumentally	0.0	1.0	False
1234.418	0.0	0Suff NW	4	1234418	styke	0.0	1.0	False
1235.36	0.0	2Suff w/ Lat.	21	1235360	effectively	1.0	0.0	False
1236.527	0.0	0Suff NW	4	1236527	mocond	0.0	1.0	False
1237.461	0.0	2Suff w/o Lat.	22	1237461	flexibility	1.0	0.0	False
1238.503	0.0	2Suff PseudoStemNW	24	1238503	janiability	0.0	1.0	False
1239.553	0.0	1Suff w/o Lat.	12	1239553	righteous	1.0	0.0	False
1240.579	0.0	2Suff w/o Lat.	22	1240579	continually	1.0	0.0	False
1242.221	0.0	2Suff w/o Lat.	22	1242221	selectively	1.0	0.0	False
1243.263	0.0	2Suff PseudoStemNW	24	1243263	excrodively	0.0	1.0	False
1244.288	0.0	1Suff w/o Lat.	12	1244288	herbal	1.0	1.0	True
1245.28	0.0	0Suff NW	4	1245280	precuke	0.0	1.0	False
1246.381	0.0	2Suff Composite	23	1246381	fortification	1.0	0.0	False
1247.614	0.0	2Suff PseudoStemNW	24	1247614	comfernably	0.0	1.0	False
1248.956	0.0	2Suff w/o Lat.	22	1248956	suitability	1.0	1.0	True
1250.282	0.0	1Suff PseudoStemNW	14	1250282	orner	0.0	1.0	False
1251.332	0.0	2Suff PseudoStemNW	24	1251332	foptration	0.0	1.0	False
1252.349	0.0	1Suff w/o Lat.	12	1252349	secondary	1.0	0.0	False
1253.408	0.0	0Suff NW	4	1253408	podent	0.0	1.0	False
1255.742	0.0	1Suff w/o Lat.	12	1255742	endless	1.0	0.0	False
1257.434	0.0	2Suff PseudoStemNW	24	1257434	perfallionism	0.0	1.0	False
1258.543	0.0	1Suff w/o Lat.	12	1258543	needless	1.0	0.0	False
1259.668	0.0	1Suff RealStemNW	15	1259668	helpive	0.0	1.0	False
1261.235	0.0	2Suff PseudoStemNW	24	1261235	movectization	0.0	1.0	False
1262.319	0.0	2Suff w/o Lat.	22	1262319	drunkenness	1.0	0.0	False
1263.753	0.0	2Suff w/o Lat.	22	1263753	masterfully	1.0	0.0	False
1265.561	0.0	1Suff PseudoStemNW	14	1265561	traphetic	0.0	1.0	False
1266.645	0.0	2Suff w/o Lat.	22	1266645	personalize	1.0	0.0	False
1267.845	0.0	2Suff PseudoStemNW	24	1267845	bleadfully	0.0	1.0	False
1268.962	0.0	0Suff NW	4	1268962	omlic	0.0	1.0	False
1270.079	0.0	0Suff NW	4	1270079	greard	0.0	1.0	False
1271.13	0.0	2Suff w/o Lat.	22	1271130	spiritualism	1.0	1.0	True
1272.38	0.0	2Suff Composite	23	1272380	secularization	1.0	0.0	False
1273.622	0.0	2Suff w/o Lat.	22	1273622	feverishly	1.0	0.0	False
1275.273	0.0	2Suff w/o Lat.	22	1275273	civilization	1.0	0.0	False
1276.832	0.0	0Suff w/o Lat.	2	1276832	joy	1.0	0.0	False
1278.432	0.0	1Suff w/o Lat.	12	1278432	traditional	1.0	0.0	False
1279.599	0.0	1Suff RealStemNW	15	1279599	causic	0.0	1.0	False
1281.05	0.0	0Suff w/ Lat.	1	1281050	institute	1.0	0.0	False
1282.683	0.0	2Suff w/o Lat.	22	1282683	attentively	1.0	0.0	False
1284.376	0.0	2Suff RealStemNW	25	1284376	causional	0.0		False
1286.776	0.0	1Suff w/o Lat.	12	1286776	fruitless	1.0	0.0	False
1288.035	0.0	2Suff RealStemNW	25	1288035	foolality	0.0	1.0	False
1289.294	0.0	2Suff RealStemNW	25	1289294	selfiousness	0.0	0.0	True
1290.427	0.0	2Suff PseudoStemNW	24	1290427	pogularization	0.0	0.0	True
1290.853	0.0	0Suff NW	4	1290853	atstart	0.0		False
1293.253	0.0	0Suff NW	4	1293253	cheher	0.0	1.0	False
1294.362	0.0	0Suff NW	4	1294362	selve	0.0	1.0	False
1295.562	0.0	0Suff w/o Lat.	2	1295562	clinic	1.0	0.0	False
1296.721	0.0	0Suff w/o Lat.	2	1296721	respect	1.0	0.0	False
1297.746	0.0	2Suff RealStemNW	25	1297746	hierarchally	0.0	0.0	True
1299.072	0.0	1Suff RealStemNW	15	1299072	stylify	0.0	1.0	False
1300.439	0.0	2Suff Composite	23	1300439	limitation	1.0	0.0	False
1302.131	0.0	0Suff NW	4	1302131	sothod	0.0	1.0	False
1304.123	0.0	2Suff w/o Lat.	22	1304123	activate	1.0	0.0	False
1305.257	0.0	2Suff w/o Lat.	22	1305257	brutalize	1.0	0.0	False
1306.482	0.0	1Suff w/o Lat.	12	1306482	hearty	1.0	0.0	False
1307.699	0.0	2Suff RealStemNW	25	1307699	victimilessly	0.0	0.0	True
1308.858	0.0	2Suff RealStemNW	25	1308858	couragliness	0.0	1.0	False
1310.05	0.0	1Suff RealStemNW	15	1310050	foolory	0.0	1.0	False
1311.192	0.0	2Suff RealStemNW	25	1311192	noisery	0.0	0.0	True
1312.384	0.0	2Suff RealStemNW	25	1312384	careiousness	0.0	1.0	False
1314.185	0.0	2Suff w/o Lat.	22	1314185	admirably	1.0	0.0	False
1315.752	0.0	2Suff Composite	23	1315752	unification	1.0	0.0	False
1317.736	0.0	2Suff RealStemNW	25	1317736	joyality	0.0	0.0	True
1318.936	0.0	0Suff NW	4	1318936	exfal	0.0	1.0	False
1320.003	0.0	1Suff w/o Lat.	12	1320003	argument	1.0	0.0	False
1321.095	0.0	1Suff w/o Lat.	12	1321095	signify	1.0	1.0	True
1322.804	0.0	2Suff w/o Lat.	22	1322804	creativity	1.0	0.0	False
1323.846	0.0	2Suff RealStemNW	25	1323846	voyeurional	0.0	1.0	False
1324.805	0.0	0Suff w/o Lat.	2	1324805	master	1.0	0.0	False
1325.855	0.0	2Suff Composite	23	1325855	identification	1.0	0.0	False
1327.155	0.0	1Suff RealStemNW	15	1327155	feverory	0.0	1.0	False
1328.906	0.0	1Suff w/o Lat.	12	1328906	powerful	1.0	0.0	False
1330.023	0.0	1Suff w/o Lat.	12	1330023	courageous	1.0	0.0	False
1331.115	0.0	0Suff NW	4	1331115	gried	0.0	0.0	True
1332.349	0.0	2Suff w/o Lat.	22	1332349	momentarily	1.0	0.0	False
1334.666	0.0	0Suff NW	4	1334666	assork	0.0	1.0	False
1335.808	0.0	1Suff w/o Lat.	12	1335808	dreadful	1.0	0.0	False
1336.992	0.0	0Suff w/o Lat.	2	1336992	attend	1.0	0.0	False
1338.142	0.0	2Suff w/o Lat.	22	1338142	mercifully	1.0	0.0	False
1340.018	0.0	1Suff w/o Lat.	12	1340018	critical	1.0	0.0	False
1341.36	0.0	2Suff RealStemNW	25	1341360	loneionist	0.0		False
1343.769	0.0	2Suff w/o Lat.	22	1343769	fortunately	1.0	0.0	False
1344.894	0.0	2Suff w/o Lat.	22	1344894	nationally	1.0		False
1347.295	0.0	2Suff PseudoStemNW	24	1347295	selvuality	0.0	1.0	False
1348.562	0.0	0Suff NW	4	1348562	feam	0.0	1.0	False
1349.987	0.0	1Suff w/o Lat.	12	1349987	cultural	1.0	0.0	False
1351.104	0.0	0Suff w/o Lat.	2	1351104	suit	1.0	0.0	False
1352.688	0.0	1Suff w/o Lat.	12	1352688	comparative	1.0		False
1355.089	0.0	1Suff RealStemNW	15	1355089	merciable	0.0	1.0	False
1356.289	0.0	0Suff w/o Lat.	2	1356289	prefer	1.0	0.0	False
1357.948	0.0	1Suff RealStemNW	15	1357948	exceptate	0.0	1.0	False
1359.49	0.0	2Suff w/o Lat.	22	1359490	mercilessly	1.0	1.0	True
1360.882	0.0	0Suff w/o Lat.	2	1360882	sign	1.0	0.0	False
1361.949	0.0	2Suff RealStemNW	25	1361949	excellalism	0.0	1.0	False
1363.792	0.0	0Suff w/o Lat.	2	1363792	FALSE	1.0	0.0	False
1364.817	0.0	0Suff NW	4	1364817	healt	0.0	1.0	False
1365.942	0.0	1Suff PseudoStemNW	14	1365942	brealtless	0.0	1.0	False
1367.551	0.0	0Suff NW	4	1367551	blead	0.0	1.0	False
1368.893	0.0	1Suff w/o Lat.	12	1368893	computer	1.0	0.0	False
1370.019	0.0	2Suff w/o Lat.	22	1370019	measurably	1.0	0.0	False
1371.444	0.0	0Suff NW	4	1371444	ind	0.0	1.0	False
1372.544	0.0	2Suff w/ Lat.	21	1372544	exclusiveness	1.0	1.0	True
1374.72	0.0	2Suff w/o Lat.	22	1374720	legalization	1.0		False
1377.112	0.0	2Suff RealStemNW	25	1377112	nationantly	0.0	1.0	False
1378.613	0.0	0Suff NW	4	1378613	tablic	0.0	1.0	False
1379.805	0.0	0Suff NW	4	1379805	brole	0.0	1.0	False
1381.039	0.0	2Suff PseudoStemNW	24	1381039	perfallionist	0.0	1.0	False
1382.481	0.0	2Suff w/o Lat.	22	1382481	usefulness	1.0	0.0	False
1384.356	0.0	0Suff NW	4	1384356	coyim	0.0	1.0	False
1386.357	0.0	1Suff w/o Lat.	12	1386357	instinctive	1.0	0.0	False
1388.333	0.0	2Suff PseudoStemNW	24	1388333	cheherably	0.0	1.0	False
1389.35	0.0	0Suff w/o Lat.	2	1389350	haste	1.0		False
1391.75	0.0	2Suff w/o Lat.	22	1391750	continuously	1.0	0.0	False
1392.801	0.0	1Suff RealStemNW	15	1392801	composian	0.0	1.0	False
1394.193	0.0	2Suff RealStemNW	25	1394193	endiously	0.0	1.0	False
1395.318	0.0	1Suff w/o Lat.	12	1395318	abolition	1.0	0.0	False
1447.509	0.0	0Suff w/o Lat.	2	1447509	moment	1.0	0.0	False
1448.534	0.0	2Suff w/o Lat.	22	1448534	assertiveness	1.0	0.0	False
1450.227	0.0	0Suff w/o Lat.	2	1450227	right	1.0	0.0	False
1451.169	0.0	1Suff w/o Lat.	12	1451169	helpful	1.0	0.0	False
1452.077	0.0	2Suff w/o Lat.	22	1452077	comparatively	1.0	0.0	False
1453.361	0.0	2Suff w/o Lat.	22	1453361	loveliness	1.0	1.0	True
1455.178	0.0	1Suff w/o Lat.	12	1455178	fearful	1.0	0.0	False
1456.228	0.0	1Suff w/o Lat.	12	1456228	greedy	1.0	0.0	False
1457.295	0.0	0Suff NW	4	1457295	pums	0.0	1.0	False
1458.521	0.0	2Suff RealStemNW	25	1458521	computitely	0.0	1.0	False
1460.396	0.0	2Suff w/o Lat.	22	1460396	cyclical	1.0		False
1462.789	0.0	2Suff RealStemNW	25	1462789	useiveness	0.0	1.0	False
1464.739	0.0	2Suff w/o Lat.	22	1464739	fertilizer	1.0	0.0	False
1465.823	0.0	1Suff w/o Lat.	12	1465823	excellent	1.0	0.0	False
1466.832	0.0	1Suff RealStemNW	15	1466832	abolitate	0.0	1.0	False
1468.449	0.0	2Suff w/o Lat.	22	1468449	carelessness	1.0	0.0	False
1469.791	0.0	1Suff RealStemNW	15	1469791	fearive	0.0	1.0	False
1471.191	0.0	2Suff w/o Lat.	22	1471191	courageously	1.0	1.0	True
1473.567	0.0	1Suff PseudoStemNW	14	1473567	contituous	0.0	1.0	False
1475.251	0.0	1Suff w/o Lat.	12	1475251	monumental	1.0	0.0	False
1477.385	0.0	0Suff w/ Lat.	1	1477385	except	1.0		False
1479.777	0.0	2Suff w/o Lat.	22	1479777	brokerage	1.0	1.0	True
1481.286	0.0	1Suff RealStemNW	15	1481286	traditionic	0.0	1.0	False
1482.803	0.0	1Suff w/o Lat.	12	1482803	fortunate	1.0	0.0	False
1484.329	0.0	0Suff NW	4	1484329	obwert	0.0	1.0	False
1485.362	0.0	1Suff PseudoStemNW	14	1485362	allendive	0.0	1.0	False
1486.663	0.0	2Suff w/o Lat.	22	1486663	greedily	1.0	0.0	False
1488.238	0.0	2Suff w/o Lat.	22	1488238	instinctively	1.0	0.0	False
1489.389	0.0	1Suff PseudoStemNW	14	1489389	obwertive	0.0	1.0	False
1491.589	0.0	1Suff w/ Lat.	11	1491589	intention	1.0		False
1493.998	0.0	0Suff NW	4	1493998	seet	0.0	1.0	False
1496.207	0.0	0Suff w/ Lat.	1	1496207	conclude	1.0	0.0	False
1497.424	0.0	2Suff w/o Lat.	22	1497424	secondarily	1.0	0.0	False
1499.15	0.0	2Suff PseudoStemNW	24	1499150	provacional	0.0	1.0	False
1500.667	0.0	2Suff Composite	23	1500667	ordination	1.0	1.0	True
1501.826	0.0	0Suff w/ Lat.	1	1501826	intend	1.0	0.0	False
1502.893	0.0	2Suff RealStemNW	25	1502893	ownmental	0.0	1.0	False
1504.393	0.0	2Suff PseudoStemNW	24	1504393	navounalism	0.0	1.0	False
1505.485	0.0	2Suff w/o Lat.	22	1505485	loneliness	1.0	0.0	False
1506.627	0.0	1Suff w/o Lat.	12	1506627	comical	1.0	1.0	True
1507.794	0.0	2Suff w/ Lat.	21	1507794	expressionist	1.0	0.0	False
1509.17	0.0	2Suff PseudoStemNW	24	1509170	hettlessness	0.0	1.0	False
1510.628	0.0	2Suff w/o Lat.	22	1510628	commercialize	1.0	0.0	False
1511.979	0.0	2Suff PseudoStemNW	24	1511979	cladsification	0.0	1.0	False
1513.563	0.0	1Suff PseudoStemNW	14	1513563	comfernable	0.0	1.0	False
1514.788	0.0	0Suff w/o Lat.	2	1514788	style	1.0	1.0	True
1515.905	0.0	0Suff w/o Lat.	2	1515905	art	1.0	0.0	False
1516.955	0.0	1Suff w/o Lat.	12	1516955	brutal	1.0	0.0	False
1518.014	0.0	2Suff PseudoStemNW	24	1518014	mocondarily	0.0	1.0	False
1519.39	0.0	1Suff w/o Lat.	12	1519390	symbolic	1.0	0.0	False
1520.598	0.0	0Suff w/o Lat.	2	1520598	excel	1.0	0.0	False
1521.974	0.0	0Suff w/o Lat.	2	1521974	continue	1.0	0.0	False
1523.099	0.0	1Suff RealStemNW	15	1523099	monumentic	0.0	0.0	True
1524.466	0.0	1Suff RealStemNW	15	1524466	purant	0.0	1.0	False
1526.125	0.0	0Suff NW	4	1526125	allend	0.0	1.0	False
1527.717	0.0	1Suff RealStemNW	15	1527717	admirless	0.0	0.0	True
1529.518	0.0	2Suff PseudoStemNW	24	1529518	comberatively	0.0	1.0	False
1531.76	0.0	0Suff w/o Lat.	2	1531760	virtue	1.0	0.0	False
1532.827	0.0	2Suff PseudoStemNW	24	1532827	murpifully	0.0	1.0	False
1534.252	0.0	2Suff w/o Lat.	22	1534252	lustily	1.0	1.0	True
1535.903	0.0	1Suff w/o Lat.	12	1535903	continuous	1.0	0.0	False
1536.962	0.0	1Suff PseudoStemNW	14	1536962	booftiful	0.0	1.0	False
1538.42	0.0	1Suff PseudoStemNW	14	1538420	bleadful	0.0	1.0	False
1540.013	0.0	1Suff w/o Lat.	12	1540013	comfortable	1.0	0.0	False
1541.896	0.0	0Suff NW	4	1541896	lums	0.0		False
1544.297	0.0	1Suff w/o Lat.	12	1544297	virtuous	1.0	0.0	False
1545.339	0.0	1Suff w/o Lat.	12	1545339	merciless	1.0	0.0	False
1546.473	0.0	2Suff w/o Lat.	22	1546473	confidential	1.0	0.0	False
1548.307	0.0	1Suff PseudoStemNW	14	1548307	moolurable	0.0	1.0	False
1549.249	0.0	0Suff w/o Lat.	2	1549249	abolish	1.0	0.0	False
1550.324	0.0	2Suff w/o Lat.	22	1550324	respectively	1.0	0.0	False
1551.599	0.0	0Suff w/o Lat.	2	1551599	slip	1.0	0.0	False
1552.675	0.0	1Suff RealStemNW	15	1552675	legalist	0.0	0.0	True
1553.633	0.0	2Suff w/o Lat.	22	1553633	modernistic	1.0	0.0	False
1554.6	0.0	1Suff w/o Lat.	12	1554600	modulate	1.0	0.0	False
1555.851	0.0	1Suff w/o Lat.	12	1555851	commercial	1.0	0.0	False
1556.909	0.0	0Suff NW	4	1556909	cronition	0.0	1.0	False
1558.118	0.0	0Suff w/ Lat.	1	1558118	express	1.0	0.0	False
1559.61	0.0	1Suff w/o Lat.	12	1559610	prophetic	1.0	0.0	False
1560.669	0.0	2Suff RealStemNW	25	1560669	variality	0.0	0.0	True
1562.636	0.0	0Suff w/o Lat.	2	1562636	method	1.0	0.0	False
1563.978	0.0	2Suff RealStemNW	25	1563978	expansishness	0.0	1.0	False
1565.079	0.0	0Suff w/o Lat.	2	1565079	fool	1.0	0.0	False
1566.146	0.0	2Suff Composite	23	1566146	sensation	1.0	0.0	False
1567.138	0.0	1Suff RealStemNW	15	1567138	passionion	0.0	1.0	False
1568.271	0.0	1Suff RealStemNW	15	1568271	helpable	0.0	1.0	False
1569.58	0.0	2Suff PseudoStemNW	24	1569580	grearively	0.0	1.0	False
1570.655	0.0	2Suff w/o Lat.	22	1570655	justification	1.0	0.0	False
1571.639	0.0	1Suff w/o Lat.	12	1571639	national	1.0	0.0	False
1572.714	0.0	2Suff Composite	23	1572714	filtration	1.0	0.0	False
1573.973	0.0	1Suff w/o Lat.	12	1573973	attractive	1.0	0.0	False
1575.098	0.0	1Suff PseudoStemNW	14	1575098	healty	0.0	0.0	True
1576.032	0.0	0Suff w/o Lat.	2	1576032	need	1.0	0.0	False
1577.274	0.0	0Suff w/o Lat.	2	1577274	own	1.0	0.0	False
1578.224	0.0	2Suff w/ Lat.	21	1578224	perfectionism	1.0	0.0	False
1579.483	0.0	2Suff PseudoStemNW	24	1579483	colliffively	0.0	1.0	False
1581.134	0.0	2Suff w/o Lat.	22	1581134	fertilization	1.0	0.0	False
1582.692	0.0	0Suff w/o Lat.	2	1582692	beauty	1.0	0.0	False
1583.643	0.0	2Suff w/o Lat.	22	1583643	beautifully	1.0	0.0	False
1584.926	0.0	1Suff PseudoStemNW	14	1584926	jokful	0.0	1.0	False
1586.368	0.0	2Suff w/o Lat.	22	1586368	wonderfully	1.0	0.0	False
1588.152	0.0	0Suff w/ Lat.	1	1588152	effect	1.0	0.0	False
1589.228	0.0	2Suff PseudoStemNW	24	1589228	conspodively	0.0	1.0	False
1590.303	0.0	2Suff PseudoStemNW	24	1590303	contitually	0.0	1.0	False
1591.578	0.0	0Suff NW	4	1591578	murpy	0.0	1.0	False
1592.704	0.0	2Suff RealStemNW	25	1592704	virtuerize	0.0	1.0	False
1593.737	0.0	1Suff PseudoStemNW	14	1593737	cutfural	0.0	1.0	False
1595.038	0.0	0Suff NW	4	1595038	nead	0.0	1.0	False
1597.33	0.0	1Suff PseudoStemNW	14	1597330	crerical	0.0	1.0	False
1598.772	0.0	0Suff w/o Lat.	2	1598772	courage	1.0	0.0	False
1600.098	0.0	2Suff w/ Lat.	21	1600098	exceptional	1.0	0.0	False
