onset	duration	trial_type	value	sample	stimulus	is_word	response	correct
45.334	0.0	2Suff RealStemNW	25	45334	unifilessly	0.0		False
47.735	0.0	2Suff Composite	23	47735	fortification	1.0	0.0	False
49.252	0.0	2Suff w/o Lat.	22	49252	continuously	1.0	0.0	False
50.411	0.0	2Suff RealStemNW	25	50411	couragliness	0.0	1.0	False
52.428	0.0	1Suff w/o Lat.	12	52428	merciless	1.0	0.0	False
53.437	0.0	2Suff w/o Lat.	22	53437	usefulness	1.0	0.0	False
54.554	0.0	0Suff NW	4	54554	lums	0.0	1.0	False
55.621	0.0	0Suff w/ Lat.	1	55621	conclude	1.0	0.0	False
56.663	0.0	2Suff RealStemNW	25	56663	actality	0.0	1.0	False
57.863	0.0	0Suff w/o Lat.	2	57863	fertile	1.0	0.0	False
58.922	0.0	0Suff w/o Lat.	2	58922	compute	1.0	0.0	False
60.047	0.0	1Suff w/ Lat.	11	60047	composite	1.0	0.0	False
61.323	0.0	2Suff PseudoStemNW	24	61323	efforniveness	0.0	1.0	False
62.798	0.0	2Suff w/o Lat.	22	62798	continually	1.0	0.0	False
63.848	0.0	1Suff PseudoStemNW	14	63848	sothodical	0.0	0.0	True
65.307	0.0	2Suff RealStemNW	25	65307	virtuerize	0.0	0.0	True
67.508	0.0	2Suff w/o Lat.	22	67508	sensuality	1.0	0.0	False
68.625	0.0	0Suff NW	4	68625	omlic	0.0	1.0	False
69.925	0.0	2Suff w/o Lat.	22	69925	carelessness	1.0	0.0	False
71.026	0.0	2Suff PseudoStemNW	24	71026	rincheousness	0.0	1.0	False
73.335	0.0	0Suff NW	4	73335	traphet	0.0	1.0	False
74.693	0.0	2Suff w/o Lat.	22	74693	effortlessly	1.0	0.0	False
75.744	0.0	2Suff w/o Lat.	22	75744	mercifully	1.0	0.0	False
76.986	0.0	1Suff RealStemNW	15	76986	continuic	0.0	0.0	True
78.42	0.0	0Suff w/o Lat.	2	78420	act	1.0	0.0	False
79.378	0.0	0Suff w/o Lat.	2	79378	comic	1.0	0.0	False
80.262	0.0	0Suff NW	4	80262	tablic	0.0	1.0	False
81.562	0.0	1Suff PseudoStemNW	14	81562	simnify	0.0	1.0	False
82.896	0.0	1Suff RealStemNW	15	82896	justant	0.0	1.0	False
84.455	0.0	1Suff PseudoStemNW	14	84455	bleadful	0.0	0.0	True
85.73	0.0	1Suff RealStemNW	15	85730	effectful	0.0	0.0	True
86.864	0.0	0Suff w/o Lat.	2	86864	second	1.0	0.0	False
87.939	0.0	1Suff RealStemNW	15	87939	admirless	0.0	0.0	True
88.998	0.0	1Suff w/o Lat.	12	88998	effortless	1.0	0.0	False
90.048	0.0	2Suff w/o Lat.	22	90048	carelessly	1.0	0.0	False
91.007	0.0	2Suff w/o Lat.	22	91007	significance	1.0	0.0	False
91.99	0.0	0Suff NW	4	91990	mympol	0.0	1.0	False
93.149	0.0	1Suff w/o Lat.	12	93149	passionate	1.0	0.0	False
94.266	0.0	1Suff PseudoStemNW	14	94266	awnist	0.0	1.0	False
95.416	0.0	0Suff w/ Lat.	1	95416	perfect	1.0	0.0	False
96.575	0.0	0Suff w/o Lat.	2	96575	excel	1.0	0.0	False
97.609	0.0	1Suff RealStemNW	15	97609	drunkor	0.0	1.0	False
98.784	0.0	1Suff w/o Lat.	12	98784	national	1.0	0.0	False
99.768	0.0	2Suff PseudoStemNW	24	99768	excrodively	0.0	1.0	False
101.068	0.0	2Suff w/o Lat.	22	101068	spiritualize	1.0	0.0	False
102.369	0.0	1Suff w/o Lat.	12	102369	attractive	1.0	0.0	False
103.369	0.0	0Suff w/o Lat.	2	103369	respect	1.0	0.0	False
104.436	0.0	2Suff w/o Lat.	22	104436	legalization	1.0	0.0	False
105.578	0.0	0Suff w/o Lat.	2	105578	mercy	1.0	1.0	True
106.095	0.0	0Suff w/o Lat.	2	106095	abolish	1.0	0.0	False
107.162	0.0	2Suff w/ Lat.	21	107162	objectionable	1.0	0.0	False
108.454	0.0	2Suff PseudoStemNW	24	108454	eschessionist	0.0	1.0	False
109.663	0.0	1Suff w/ Lat.	11	109663	objective	1.0	0.0	False
110.721	0.0	0Suff NW	4	110721	jok	0.0	1.0	False
111.78	0.0	2Suff w/o Lat.	22	111780	industrialist	1.0	0.0	False
113.039	0.0	2Suff RealStemNW	25	113039	actfully	0.0	0.0	True
114.489	0.0	2Suff w/o Lat.	22	114489	passionately	1.0	0.0	False
115.639	0.0	1Suff w/o Lat.	12	115639	modulate	1.0	1.0	True
117.357	0.0	1Suff w/o Lat.	12	117357	fertilize	1.0	0.0	False
118.449	0.0	1Suff RealStemNW	15	118449	fearive	0.0	1.0	False
119.799	0.0	0Suff w/o Lat.	2	119799	prefer	1.0	0.0	False
120.824	0.0	2Suff w/o Lat.	22	120824	needlessly	1.0	0.0	False
122.15	0.0	2Suff PseudoStemNW	24	122150	movectistic	0.0	1.0	False
123.267	0.0	0Suff NW	4	123267	effern	0.0	1.0	False
124.55	0.0	0Suff NW	4	124550	awn	0.0	1.0	False
125.751	0.0	1Suff RealStemNW	15	125751	creatful	0.0	1.0	False
127.36	0.0	2Suff PseudoStemNW	24	127360	flivitualize	0.0	1.0	False
129.035	0.0	2Suff w/ Lat.	21	129035	excessively	1.0	0.0	False
130.186	0.0	2Suff Composite	23	130186	classification	1.0	0.0	False
131.328	0.0	0Suff w/o Lat.	2	131328	legal	1.0	0.0	False
132.486	0.0	0Suff NW	4	132486	massien	0.0	1.0	False
133.637	0.0	0Suff NW	4	133637	lond	0.0	1.0	False
134.695	0.0	2Suff w/o Lat.	22	134695	commercialize	1.0	0.0	False
136.196	0.0	2Suff w/ Lat.	21	136196	exclusiveness	1.0	0.0	False
137.396	0.0	0Suff w/o Lat.	2	137396	haste	1.0	1.0	True
138.546	0.0	2Suff RealStemNW	25	138546	careiousness	0.0	1.0	False
140.247	0.0	1Suff w/o Lat.	12	140247	senseless	1.0	0.0	False
141.272	0.0	2Suff PseudoStemNW	24	141272	inglinitional	0.0	1.0	False
143.648	0.0	1Suff RealStemNW	15	143648	legalist	0.0	0.0	True
144.748	0.0	1Suff PseudoStemNW	14	144748	obwertion	0.0	1.0	False
145.899	0.0	0Suff NW	4	145899	feam	0.0	1.0	False
147.132	0.0	0Suff w/o Lat.	2	147132	collect	1.0	0.0	False
148.174	0.0	2Suff RealStemNW	25	148174	senseiously	0.0	1.0	False
149.541	0.0	2Suff PseudoStemNW	24	149541	pimerfully	0.0	1.0	False
150.867	0.0	0Suff NW	4	150867	pums	0.0	1.0	False
152.584	0.0	1Suff RealStemNW	15	152584	purant	0.0	1.0	False
154.168	0.0	0Suff NW	4	154168	atstart	0.0	1.0	False
155.852	0.0	2Suff w/o Lat.	22	155852	flexibility	1.0	0.0	False
157.302	0.0	1Suff w/o Lat.	12	157302	continuous	1.0	0.0	False
158.753	0.0	0Suff NW	4	158753	conspode	0.0	1.0	False
159.953	0.0	1Suff w/ Lat.	11	159953	effective	1.0	0.0	False
161.095	0.0	0Suff NW	4	161095	onnend	0.0	1.0	False
162.154	0.0	2Suff w/ Lat.	21	162154	objectively	1.0	0.0	False
163.179	0.0	0Suff NW	4	163179	styke	0.0	1.0	False
164.296	0.0	1Suff PseudoStemNW	14	164296	selvible	0.0	1.0	False
165.405	0.0	1Suff w/o Lat.	12	165405	active	1.0	0.0	False
166.438	0.0	2Suff w/o Lat.	22	166438	fearfully	1.0	0.0	False
167.514	0.0	0Suff NW	4	167514	exfapt	0.0	1.0	False
168.647	0.0	1Suff RealStemNW	15	168647	variment	0.0	1.0	False
169.864	0.0	0Suff NW	4	169864	elpard	0.0	1.0	False
171.156	0.0	0Suff w/o Lat.	2	171156	power	1.0	0.0	False
172.165	0.0	0Suff w/o Lat.	2	172165	critic	1.0	0.0	False
173.132	0.0	2Suff w/o Lat.	22	173132	herbalist	1.0	0.0	False
174.049	0.0	0Suff w/o Lat.	2	174049	admire	1.0	0.0	False
175.008	0.0	2Suff PseudoStemNW	24	175008	perfallionist	0.0	1.0	False
176.525	0.0	2Suff RealStemNW	25	176525	useiously	0.0	1.0	False
177.867	0.0	0Suff NW	4	177867	blead	0.0	0.0	True
179.276	0.0	2Suff PseudoStemNW	24	179276	prosodural	0.0	1.0	False
181.201	0.0	2Suff Composite	23	181201	whimsical	1.0	0.0	False
182.518	0.0	2Suff PseudoStemNW	24	182518	jistifiable	0.0	1.0	False
183.777	0.0	0Suff w/o Lat.	2	183777	industry	1.0	0.0	False
185.052	0.0	2Suff PseudoStemNW	24	185052	flivitually	0.0	1.0	False
186.253	0.0	2Suff w/ Lat.	21	186253	exclusively	1.0	0.0	False
187.286	0.0	2Suff Composite	23	187286	maturation	1.0	0.0	False
188.954	0.0	0Suff w/o Lat.	2	188954	broke	1.0	0.0	False
189.937	0.0	2Suff RealStemNW	25	189937	selfiousness	0.0	0.0	True
191.354	0.0	0Suff w/o Lat.	2	191354	beauty	1.0		False
193.755	0.0	2Suff Composite	23	193755	farcical	1.0	1.0	True
195.064	0.0	2Suff RealStemNW	25	195064	ordinfully	0.0	1.0	False
200.082	0.0	1Suff RealStemNW	15	200082	conclusful	0.0	1.0	False
201.441	0.0	1Suff PseudoStemNW	14	201441	rebuinal	0.0	1.0	False
202.558	0.0	2Suff RealStemNW	25	202558	industriantly	0.0	1.0	False
203.733	0.0	0Suff w/ Lat.	1	203733	express	1.0	0.0	False
204.842	0.0	2Suff w/ Lat.	21	204842	conclusively	1.0	0.0	False
205.809	0.0	1Suff w/o Lat.	12	205809	justify	1.0	0.0	False
206.876	0.0	0Suff w/o Lat.	2	206876	luck	1.0	0.0	False
207.809	0.0	0Suff w/o Lat.	2	207809	prophet	1.0	0.0	False
208.785	0.0	1Suff PseudoStemNW	14	208785	indless	0.0	1.0	False
209.902	0.0	2Suff RealStemNW	25	209902	fertilability	0.0	1.0	False
211.102	0.0	1Suff PseudoStemNW	14	211102	rincheous	0.0	1.0	False
212.294	0.0	0Suff w/o Lat.	2	212294	danger	1.0	0.0	False
213.261	0.0	2Suff PseudoStemNW	24	213261	onwertionable	0.0	1.0	False
214.328	0.0	2Suff w/o Lat.	22	214328	breathlessly	1.0	0.0	False
215.42	0.0	1Suff w/o Lat.	12	215420	tireless	1.0	0.0	False
216.462	0.0	2Suff RealStemNW	25	216462	variality	0.0	1.0	False
217.712	0.0	2Suff PseudoStemNW	24	217712	excrodiveness	0.0	1.0	False
219.08	0.0	1Suff w/o Lat.	12	219080	sharpen	1.0	0.0	False
220.322	0.0	0Suff w/ Lat.	1	220322	presume	1.0	0.0	False
221.622	0.0	0Suff NW	4	221622	gried	0.0	1.0	False
222.656	0.0	2Suff Composite	23	222656	embarkation	1.0	1.0	True
224.415	0.0	2Suff w/o Lat.	22	224415	abolitionist	1.0	0.0	False
226.073	0.0	1Suff w/o Lat.	12	226073	vaccinate	1.0	0.0	False
227.04	0.0	0Suff w/o Lat.	2	227040	nation	1.0	0.0	False
227.891	0.0	0Suff NW	4	227891	byvre	0.0	1.0	False
228.808	0.0	0Suff w/o Lat.	2	228808	spirit	1.0	0.0	False
229.725	0.0	2Suff RealStemNW	25	229725	admirical	0.0	0.0	True
230.925	0.0	0Suff w/o Lat.	2	230925	exist	1.0	0.0	False
231.9	0.0	0Suff NW	4	231900	combore	0.0	1.0	False
232.926	0.0	0Suff w/o Lat.	2	232926	courage	1.0	0.0	False
233.867	0.0	1Suff RealStemNW	15	233867	helpable	0.0	1.0	False
235.226	0.0	2Suff Composite	23	235226	voyeuristic	1.0	0.0	False
236.935	0.0	2Suff w/ Lat.	21	236935	exceptional	1.0	0.0	False
237.819	0.0	1Suff w/o Lat.	12	237819	hearty	1.0	0.0	False
238.936	0.0	0Suff NW	4	238936	mourd	0.0	1.0	False
240.069	0.0	1Suff w/ Lat.	11	240069	institution	1.0	0.0	False
240.945	0.0	2Suff RealStemNW	25	240945	foolality	0.0	1.0	False
242.437	0.0	2Suff w/o Lat.	22	242437	measurably	1.0	0.0	False
243.354	0.0	0Suff w/o Lat.	2	243354	select	1.0	0.0	False
244.246	0.0	1Suff w/o Lat.	12	244246	lucky	1.0	0.0	False
245.063	0.0	1Suff PseudoStemNW	14	245063	brealtless	0.0	1.0	False
246.146	0.0	2Suff w/o Lat.	22	246146	artfully	1.0	0.0	False
247.547	0.0	1Suff RealStemNW	15	247547	modernate	0.0	1.0	False
248.814	0.0	2Suff PseudoStemNW	24	248814	comfernably	0.0	1.0	False
249.806	0.0	0Suff NW	4	249806	lurtile	0.0	1.0	False
250.873	0.0	1Suff PseudoStemNW	14	250873	crerical	0.0	1.0	False
252.09	0.0	2Suff w/o Lat.	22	252090	nationalism	1.0	0.0	False
253.032	0.0	0Suff w/o Lat.	2	253032	proceed	1.0	0.0	False
253.974	0.0	1Suff RealStemNW	15	253974	truthive	0.0	1.0	False
255.132	0.0	2Suff PseudoStemNW	24	255132	canklessly	0.0	1.0	False
256.558	0.0	0Suff NW	4	256558	freat	0.0	1.0	False
257.625	0.0	1Suff PseudoStemNW	14	257625	flivitual	0.0	1.0	False
258.683	0.0	2Suff RealStemNW	25	258683	penalilessly	0.0	1.0	False
260.009	0.0	1Suff PseudoStemNW	14	260009	elpardive	0.0	1.0	False
261.151	0.0	1Suff w/o Lat.	12	261151	confidence	1.0	0.0	False
262.235	0.0	2Suff w/o Lat.	22	262235	ownership	1.0	0.0	False
263.21	0.0	1Suff PseudoStemNW	14	263210	lumsy	0.0	1.0	False
264.26	0.0	2Suff PseudoStemNW	24	264260	provacional	0.0	1.0	False
265.344	0.0	1Suff w/o Lat.	12	265344	assertive	1.0	0.0	False
266.336	0.0	1Suff w/o Lat.	12	266336	comfortable	1.0	0.0	False
267.369	0.0	0Suff w/o Lat.	2	267369	comfort	1.0	0.0	False
268.428	0.0	2Suff RealStemNW	25	268428	loneionist	0.0	1.0	False
269.512	0.0	1Suff w/o Lat.	12	269512	stylist	1.0	0.0	False
270.987	0.0	2Suff PseudoStemNW	24	270987	feamfully	0.0	1.0	False
272.088	0.0	2Suff Composite	23	272088	identical	1.0	0.0	False
273.188	0.0	1Suff PseudoStemNW	14	273188	exfallent	0.0	1.0	False
274.23	0.0	1Suff w/o Lat.	12	274230	noisy	1.0	0.0	False
275.164	0.0	2Suff w/o Lat.	22	275164	significant	1.0	1.0	True
276.064	0.0	2Suff RealStemNW	25	276064	heroliness	0.0	1.0	False
277.431	0.0	2Suff PseudoStemNW	24	277431	ludsily	0.0	1.0	False
278.498	0.0	0Suff NW	4	278498	luds	0.0	1.0	False
279.598	0.0	2Suff RealStemNW	25	279598	brokiness	0.0	1.0	False
281.065	0.0	2Suff w/o Lat.	22	281065	carefully	1.0	0.0	False
282.291	0.0	0Suff NW	4	282291	exfal	0.0	1.0	False
283.266	0.0	2Suff RealStemNW	25	283266	brutional	0.0	1.0	False
284.733	0.0	2Suff w/o Lat.	22	284733	confidential	1.0	0.0	False
285.725	0.0	2Suff w/o Lat.	22	285725	attentively	1.0	0.0	False
287.251	0.0	1Suff PseudoStemNW	14	287251	contituous	0.0	0.0	True
288.568	0.0	1Suff w/o Lat.	12	288568	preferable	1.0	0.0	False
289.651	0.0	2Suff PseudoStemNW	24	289651	flivitualism	0.0	1.0	False
290.827	0.0	1Suff w/o Lat.	12	290827	modernize	1.0	0.0	False
292.027	0.0	1Suff w/o Lat.	12	292027	drunken	1.0	0.0	False
293.052	0.0	2Suff RealStemNW	25	293052	flexfulness	0.0	1.0	False
294.369	0.0	0Suff NW	4	294369	darber	0.0	1.0	False
295.545	0.0	0Suff NW	4	295545	navoun	0.0	1.0	False
296.787	0.0	2Suff PseudoStemNW	24	296787	sothodically	0.0	1.0	False
297.871	0.0	0Suff NW	4	297871	faice	0.0	1.0	False
299.704	0.0	0Suff NW	4	299704	sedule	0.0	1.0	False
300.88	0.0	1Suff PseudoStemNW	14	300880	rinchful	0.0	1.0	False
302.03	0.0	1Suff RealStemNW	15	302030	careable	0.0	1.0	False
303.281	0.0	1Suff w/o Lat.	12	303281	mournful	1.0	0.0	False
304.773	0.0	1Suff PseudoStemNW	14	304773	broler	0.0	1.0	False
305.773	0.0	1Suff PseudoStemNW	14	305773	movectize	0.0	1.0	False
307.098	0.0	2Suff PseudoStemNW	24	307098	foptration	0.0	1.0	False
308.132	0.0	2Suff RealStemNW	25	308132	classally	0.0	1.0	False
309.299	0.0	2Suff w/o Lat.	22	309299	drunkenly	1.0	0.0	False
310.85	0.0	2Suff w/o Lat.	22	310850	fertilizer	1.0	0.0	False
312.075	0.0	2Suff w/o Lat.	22	312075	causality	1.0	0.0	False
313.159	0.0	1Suff w/o Lat.	12	313159	noticeable	1.0	0.0	False
314.117	0.0	2Suff RealStemNW	25	314117	vulgarilessly	0.0	0.0	True
315.268	0.0	1Suff w/o Lat.	12	315268	procedure	1.0	0.0	False
316.243	0.0	0Suff NW	4	316243	rinch	0.0	1.0	False
317.41	0.0	1Suff RealStemNW	15	317410	helpive	0.0	1.0	False
318.469	0.0	2Suff RealStemNW	25	318469	farcally	0.0	1.0	False
319.502	0.0	1Suff PseudoStemNW	14	319502	ceantless	0.0	1.0	False
320.486	0.0	2Suff RealStemNW	25	320486	voyeurional	0.0	1.0	False
321.686	0.0	2Suff PseudoStemNW	24	321686	abadilionist	0.0	1.0	False
322.937	0.0	1Suff PseudoStemNW	14	322937	coatageous	0.0	1.0	False
324.104	0.0	2Suff Composite	23	324104	purification	1.0	0.0	False
325.237	0.0	1Suff w/ Lat.	11	325237	inspiration	1.0	0.0	False
326.188	0.0	2Suff w/o Lat.	22	326188	slippery	1.0	0.0	False
327.188	0.0	2Suff RealStemNW	25	327188	selfiveness	0.0	1.0	False
328.472	0.0	2Suff w/o Lat.	22	328472	masterfully	1.0	0.0	False
329.747	0.0	1Suff w/o Lat.	12	329747	tactical	1.0	0.0	False
331.022	0.0	2Suff PseudoStemNW	24	331022	griedily	0.0	1.0	False
332.123	0.0	2Suff w/o Lat.	22	332123	powerfully	1.0	0.0	False
333.29	0.0	0Suff w/ Lat.	1	333290	inspire	1.0	0.0	False
334.315	0.0	2Suff PseudoStemNW	24	334315	murpilessly	0.0	1.0	False
335.44	0.0	2Suff RealStemNW	25	335440	suitfulness	0.0	1.0	False
339.475	0.0	0Suff NW	4	339475	vetcine	0.0	1.0	False
340.592	0.0	1Suff PseudoStemNW	14	340592	eschession	0.0	1.0	False
341.692	0.0	2Suff w/o Lat.	22	341692	comically	1.0	0.0	False
343.243	0.0	2Suff PseudoStemNW	24	343243	jistification	0.0	1.0	False
344.443	0.0	1Suff PseudoStemNW	14	344443	griedy	0.0	1.0	False
345.502	0.0	0Suff w/o Lat.	2	345502	assert	1.0	0.0	False
346.502	0.0	0Suff NW	4	346502	esress	0.0	1.0	False
347.527	0.0	2Suff Composite	23	347527	penalization	1.0	0.0	False
348.945	0.0	0Suff w/o Lat.	2	348945	art	1.0	0.0	False
350.045	0.0	0Suff NW	4	350045	healt	0.0	1.0	False
351.087	0.0	0Suff w/o Lat.	2	351087	attract	1.0	0.0	False
352.062	0.0	2Suff w/o Lat.	22	352062	hastily	1.0	0.0	False
353.179	0.0	2Suff w/o Lat.	22	353179	optically	1.0	0.0	False
354.063	0.0	0Suff w/o Lat.	2	354063	tactic	1.0	0.0	False
355.096	0.0	2Suff Composite	23	355096	quizzical	1.0	1.0	True
356.514	0.0	1Suff RealStemNW	15	356514	careive	0.0	1.0	False
357.839	0.0	0Suff w/o Lat.	2	357839	modern	1.0	0.0	False
358.889	0.0	1Suff RealStemNW	15	358889	powerive	0.0	1.0	False
360.031	0.0	1Suff w/o Lat.	12	360031	victimize	1.0	0.0	False
361.223	0.0	0Suff w/o Lat.	2	361223	region	1.0	0.0	False
362.265	0.0	2Suff RealStemNW	25	362265	effortiously	0.0	1.0	False
363.808	0.0	0Suff NW	4	363808	abadill	0.0		False
366.2	0.0	0Suff w/o Lat.	2	366200	measure	1.0	0.0	False
367.167	0.0	1Suff w/o Lat.	12	367167	legalize	1.0	0.0	False
368.226	0.0	1Suff PseudoStemNW	14	368226	moolurable	0.0	1.0	False
369.318	0.0	1Suff w/o Lat.	12	369318	critical	1.0	0.0	False
370.251	0.0	1Suff RealStemNW	15	370251	exclusful	0.0	1.0	False
371.343	0.0	1Suff w/o Lat.	12	371343	continual	1.0	0.0	False
372.36	0.0	1Suff w/ Lat.	11	372360	intention	1.0	0.0	False
373.41	0.0	0Suff NW	4	373410	carsh	0.0	1.0	False
374.786	0.0	1Suff w/o Lat.	12	374786	wonderful	1.0	0.0	False
375.745	0.0	1Suff w/o Lat.	12	375745	selective	1.0	0.0	False
376.862	0.0	0Suff NW	4	376862	nead	0.0	1.0	False
377.854	0.0	1Suff RealStemNW	15	377854	noticeless	0.0	0.0	True
378.837	0.0	0Suff NW	4	378837	adnise	0.0	1.0	False
380.146	0.0	2Suff w/o Lat.	22	380146	selfishness	1.0	0.0	False
381.296	0.0	2Suff RealStemNW	25	381296	presumator	0.0	1.0	False
382.738	0.0	0Suff w/o Lat.	2	382738	fear	1.0	0.0	False
383.914	0.0	1Suff PseudoStemNW	14	383914	franical	0.0	1.0	False
385.431	0.0	2Suff w/o Lat.	22	385431	selectively	1.0	0.0	False
386.373	0.0	1Suff RealStemNW	15	386373	confidious	0.0	1.0	False
387.907	0.0	0Suff w/o Lat.	2	387907	sign	1.0	0.0	False
388.915	0.0	0Suff w/o Lat.	2	388915	right	1.0	0.0	False
389.799	0.0	2Suff PseudoStemNW	24	389799	fortorately	0.0	1.0	False
391.016	0.0	2Suff w/o Lat.	22	391016	critically	1.0	0.0	False
392.025	0.0	2Suff w/o Lat.	22	392025	ceaselessly	1.0	0.0	False
393.825	0.0	1Suff RealStemNW	15	393825	fruitable	0.0	1.0	False
395.234	0.0	0Suff w/ Lat.	1	395234	object	1.0	0.0	False
396.293	0.0	1Suff w/o Lat.	12	396293	careless	1.0	0.0	False
397.259	0.0	2Suff w/o Lat.	22	397259	sharpener	1.0	0.0	False
398.46	0.0	0Suff w/o Lat.	2	398460	attend	1.0	0.0	False
399.277	0.0	2Suff w/o Lat.	22	399277	foolishness	1.0	0.0	False
400.235	0.0	2Suff PseudoStemNW	24	400235	comborition	0.0	1.0	False
401.327	0.0	2Suff PseudoStemNW	24	401327	arbumentative	0.0	1.0	False
402.878	0.0	2Suff RealStemNW	25	402878	hastery	0.0	1.0	False
404.545	0.0	1Suff w/o Lat.	12	404545	careful	1.0	0.0	False
405.512	0.0	0Suff w/o Lat.	2	405512	just	1.0	0.0	False
406.437	0.0	1Suff w/o Lat.	12	406437	breathless	1.0	0.0	False
407.479	0.0	2Suff RealStemNW	25	407479	endiously	0.0	1.0	False
408.538	0.0	2Suff w/o Lat.	22	408538	spirituality	1.0	0.0	False
409.588	0.0	2Suff PseudoStemNW	24	409588	janiability	0.0	1.0	False
410.947	0.0	0Suff w/o Lat.	2	410947	care	1.0	0.0	False
411.914	0.0	2Suff w/o Lat.	22	411914	activist	1.0	0.0	False
412.756	0.0	2Suff w/o Lat.	22	412756	helpfully	1.0	0.0	False
413.531	0.0	1Suff PseudoStemNW	14	413531	coyimal	0.0	1.0	False
414.548	0.0	2Suff PseudoStemNW	24	414548	soripsistic	0.0	1.0	False
416.007	0.0	1Suff w/o Lat.	12	416007	collective	1.0	0.0	False
417.366	0.0	1Suff w/o Lat.	12	417366	causal	1.0	0.0	False
418.341	0.0	1Suff w/o Lat.	12	418341	respective	1.0	0.0	False
419.258	0.0	0Suff NW	4	419258	brealt	0.0	1.0	False
420.317	0.0	1Suff RealStemNW	15	420317	assertful	0.0	1.0	False
421.75	0.0	0Suff NW	4	421750	boofty	0.0	1.0	False
422.842	0.0	1Suff RealStemNW	15	422842	feverory	0.0	1.0	False
423.793	0.0	2Suff RealStemNW	25	423793	fooliveness	0.0	1.0	False
425.001	0.0	1Suff RealStemNW	15	425001	selfory	0.0	1.0	False
426.035	0.0	2Suff w/o Lat.	22	426035	brutality	1.0	1.0	True
427.26	0.0	0Suff w/o Lat.	2	427260	culture	1.0	0.0	False
428.361	0.0	2Suff w/o Lat.	22	428361	monumentally	1.0	0.0	False
429.744	0.0	2Suff PseudoStemNW	24	429744	tistlessly	0.0	1.0	False
430.845	0.0	0Suff w/o Lat.	2	430845	vary	1.0	0.0	False
431.845	0.0	2Suff w/o Lat.	22	431845	comparatively	1.0	0.0	False
432.829	0.0	2Suff PseudoStemNW	24	432829	cutfurally	0.0	1.0	False
433.954	0.0	2Suff PseudoStemNW	24	433954	seetably	0.0	1.0	False
435.363	0.0	0Suff NW	4	435363	inflise	0.0	1.0	False
436.763	0.0	1Suff RealStemNW	15	436763	nationic	0.0	1.0	False
438.047	0.0	0Suff NW	4	438047	pacic	0.0	1.0	False
438.972	0.0	2Suff w/o Lat.	22	438972	spiritualism	1.0	0.0	False
440.073	0.0	2Suff PseudoStemNW	24	440073	contitually	0.0	1.0	False
441.44	0.0	2Suff w/o Lat.	22	441440	tirelessly	1.0	0.0	False
442.773	0.0	2Suff PseudoStemNW	24	442773	moolurably	0.0	1.0	False
443.74	0.0	0Suff w/o Lat.	2	443740	brute	1.0	0.0	False
444.832	0.0	1Suff w/o Lat.	12	444832	purify	1.0	0.0	False
445.766	0.0	2Suff PseudoStemNW	24	445766	movectization	0.0	1.0	False
446.825	0.0	2Suff w/o Lat.	22	446825	activate	1.0	0.0	False
447.775	0.0	1Suff PseudoStemNW	14	447775	seetable	0.0	1.0	False
448.667	0.0	1Suff PseudoStemNW	14	448667	expredive	0.0	1.0	False
449.626	0.0	2Suff w/o Lat.	22	449626	brutalize	1.0	0.0	False
450.734	0.0	0Suff w/o Lat.	2	450734	passion	1.0	0.0	False
451.751	0.0	2Suff RealStemNW	25	451751	hierarchally	0.0	0.0	True
452.985	0.0	0Suff NW	4	452985	inglinite	0.0	1.0	False
454.094	0.0	0Suff w/o Lat.	2	454094	argue	1.0	0.0	False
455.002	0.0	2Suff w/o Lat.	22	455002	foolishly	1.0	0.0	False
456.361	0.0	2Suff Composite	23	456361	sensation	1.0	0.0	False
457.428	0.0	1Suff w/o Lat.	12	457428	artist	1.0	0.0	False
458.253	0.0	1Suff RealStemNW	15	458253	preferless	0.0	0.0	True
459.47	0.0	0Suff NW	4	459470	obwert	0.0	1.0	False
460.446	0.0	0Suff w/o Lat.	2	460446	slip	1.0	0.0	False
461.346	0.0	1Suff RealStemNW	15	461346	perfectate	0.0	1.0	False
462.621	0.0	2Suff w/o Lat.	22	462621	attractively	1.0	0.0	False
463.488	0.0	2Suff PseudoStemNW	24	463488	retendlessly	0.0	1.0	False
465.139	0.0	0Suff w/o Lat.	2	465139	confide	1.0	0.0	False
466.197	0.0	2Suff PseudoStemNW	24	466197	perfallionism	0.0	1.0	False
467.698	0.0	2Suff w/o Lat.	22	467698	symbolically	1.0	0.0	False
468.715	0.0	1Suff w/o Lat.	12	468715	fearful	1.0	0.0	False
469.757	0.0	0Suff w/ Lat.	1	469757	effect	1.0	0.0	False
470.607	0.0	1Suff w/o Lat.	12	470607	personal	1.0	0.0	False
471.566	0.0	2Suff w/o Lat.	22	471566	sensibly	1.0	0.0	False
472.524	0.0	0Suff w/ Lat.	1	472524	except	1.0	0.0	False
473.558	0.0	0Suff NW	4	473558	combere	0.0	1.0	False
481.335	0.0	1Suff w/o Lat.	12	481335	needless	1.0	0.0	False
482.327	0.0	2Suff RealStemNW	25	482327	commerceantly	0.0	1.0	False
483.511	0.0	2Suff RealStemNW	25	483511	exceptality	0.0	1.0	False
485.262	0.0	0Suff NW	4	485262	allend	0.0	1.0	False
486.379	0.0	1Suff w/o Lat.	12	486379	civilize	1.0	0.0	False
487.479	0.0	1Suff w/o Lat.	12	487479	signify	1.0	0.0	False
488.596	0.0	0Suff NW	4	488596	kibs	0.0	1.0	False
489.63	0.0	0Suff w/o Lat.	2	489630	civil	1.0	0.0	False
490.78	0.0	2Suff RealStemNW	25	490780	excessfully	0.0	1.0	False
492.897	0.0	2Suff RealStemNW	25	492897	quizzally	0.0	1.0	False
494.298	0.0	0Suff NW	4	494298	coyim	0.0	1.0	False
495.398	0.0	0Suff NW	4	495398	pimer	0.0	1.0	False
496.557	0.0	2Suff PseudoStemNW	24	496557	ewilsential	0.0	1.0	False
497.991	0.0	0Suff NW	4	497991	feal	0.0	1.0	False
499.341	0.0	1Suff w/o Lat.	12	499341	expansive	1.0	0.0	False
500.508	0.0	2Suff w/o Lat.	22	500508	justifiable	1.0	0.0	False
501.792	0.0	2Suff PseudoStemNW	24	501792	selvation	0.0	1.0	False
503.517	0.0	2Suff RealStemNW	25	503517	tacticical	0.0		False
505.91	0.0	0Suff w/o Lat.	2	505910	moment	1.0	0.0	False
507.618	0.0	1Suff w/o Lat.	12	507618	slipper	1.0	0.0	False
508.677	0.0	0Suff w/ Lat.	1	508677	conduct	1.0	0.0	False
509.527	0.0	1Suff RealStemNW	15	509527	tacticic	0.0	1.0	False
511.345	0.0	0Suff NW	4	511345	creric	0.0	1.0	False
512.462	0.0	1Suff PseudoStemNW	14	512462	traphetic	0.0	1.0	False
513.62	0.0	0Suff w/o Lat.	2	513620	flex	1.0	0.0	False
514.779	0.0	1Suff w/o Lat.	12	514779	spiritual	1.0	0.0	False
515.854	0.0	0Suff w/o Lat.	2	515854	create	1.0	0.0	False
516.73	0.0	2Suff w/o Lat.	22	516730	noticeably	1.0	0.0	False
517.888	0.0	1Suff RealStemNW	15	517888	comparatful	0.0	1.0	False
519.264	0.0	1Suff PseudoStemNW	14	519264	onnention	0.0	1.0	False
520.456	0.0	2Suff w/o Lat.	22	520456	modernization	1.0	0.0	False
521.689	0.0	1Suff w/o Lat.	12	521689	dreadful	1.0	0.0	False
522.79	0.0	0Suff NW	4	522790	contitum	0.0	1.0	False
523.832	0.0	1Suff w/o Lat.	12	523832	sensible	1.0	0.0	False
524.865	0.0	0Suff NW	4	524865	selve	0.0	1.0	False
525.924	0.0	0Suff NW	4	525924	rebuin	0.0	1.0	False
526.899	0.0	2Suff PseudoStemNW	24	526899	procation	0.0	1.0	False
528.075	0.0	0Suff NW	4	528075	retend	0.0	1.0	False
529.417	0.0	0Suff NW	4	529417	eschess	0.0	1.0	False
530.375	0.0	2Suff w/o Lat.	22	530375	customarily	1.0	0.0	False
531.718	0.0	0Suff NW	4	531718	seet	0.0	1.0	False
533.31	0.0	2Suff RealStemNW	25	533310	nationical	0.0	0.0	True
534.227	0.0	1Suff PseudoStemNW	14	534227	brukal	0.0	1.0	False
535.327	0.0	0Suff NW	4	535327	tist	0.0	1.0	False
536.269	0.0	2Suff w/o Lat.	22	536269	commercialism	1.0	0.0	False
537.369	0.0	1Suff RealStemNW	15	537369	causic	0.0	1.0	False
538.311	0.0	0Suff w/o Lat.	2	538311	drunk	1.0	0.0	False
539.303	0.0	2Suff RealStemNW	25	539303	expressmental	0.0	1.0	False
540.604	0.0	2Suff RealStemNW	25	540604	humanional	0.0	1.0	False
541.629	0.0	2Suff RealStemNW	25	541629	identally	0.0	0.0	True
542.821	0.0	0Suff NW	4	542821	provace	0.0	1.0	False
543.888	0.0	1Suff w/o Lat.	12	543888	endless	1.0	0.0	False
544.905	0.0	0Suff w/o Lat.	2	544905	self	1.0	0.0	False
545.805	0.0	2Suff PseudoStemNW	24	545805	lurtilizer	0.0	1.0	False
546.789	0.0	2Suff RealStemNW	25	546789	breathiously	0.0	1.0	False
547.781	0.0	2Suff Composite	23	547781	identification	1.0	0.0	False
548.873	0.0	2Suff RealStemNW	25	548873	victimilessly	0.0	1.0	False
550.132	0.0	2Suff Composite	23	550132	computation	1.0	0.0	False
551.115	0.0	2Suff w/o Lat.	22	551115	collectively	1.0	0.0	False
552.191	0.0	2Suff w/o Lat.	22	552191	relentlessly	1.0	0.0	False
553.116	0.0	2Suff RealStemNW	25	553116	signiousness	0.0	1.0	False
554.416	0.0	1Suff w/o Lat.	12	554416	hasty	1.0	0.0	False
555.842	0.0	2Suff RealStemNW	25	555842	ownmental	0.0	1.0	False
557.134	0.0	2Suff w/ Lat.	21	557134	conductivity	1.0	0.0	False
558.376	0.0	1Suff w/o Lat.	12	558376	cultural	1.0	0.0	False
559.443	0.0	2Suff Composite	23	559443	nullification	1.0	0.0	False
560.701	0.0	1Suff PseudoStemNW	14	560701	jokous	0.0	1.0	False
561.818	0.0	2Suff w/o Lat.	22	561818	fruitlessly	1.0	1.0	True
563.319	0.0	1Suff RealStemNW	15	563319	merciable	0.0	1.0	False
564.336	0.0	2Suff w/o Lat.	22	564336	brokerage	1.0	0.0	False
565.528	0.0	2Suff RealStemNW	25	565528	magicical	0.0	1.0	False
566.987	0.0	2Suff RealStemNW	25	566987	signmentive	0.0	1.0	False
568.754	0.0	1Suff PseudoStemNW	14	568754	cuppomary	0.0	1.0	False
569.846	0.0	0Suff NW	4	569846	murpy	0.0	1.0	False
570.888	0.0	2Suff RealStemNW	25	570888	causional	0.0	1.0	False
571.88	0.0	0Suff w/o Lat.	2	571880	tradition	1.0	0.0	False
573.047	0.0	1Suff w/ Lat.	11	573047	excessive	1.0	0.0	False
574.164	0.0	2Suff w/o Lat.	22	574164	uselessly	1.0	0.0	False
575.289	0.0	1Suff RealStemNW	15	575289	virtance	0.0	1.0	False
576.881	0.0	1Suff RealStemNW	15	576881	humanify	0.0	0.0	True
577.79	0.0	2Suff PseudoStemNW	24	577790	conwodential	0.0	1.0	False
578.99	0.0	0Suff w/o Lat.	2	578990	instinct	1.0	1.0	True
580.166	0.0	0Suff w/o Lat.	2	580166	cause	1.0	0.0	False
581.383	0.0	2Suff w/o Lat.	22	581383	dreadfully	1.0	0.0	False
582.383	0.0	2Suff Composite	23	582383	probation	1.0	0.0	False
583.525	0.0	1Suff w/o Lat.	12	583525	optical	1.0	0.0	False
584.525	0.0	0Suff w/o Lat.	2	584525	suit	1.0	0.0	False
585.501	0.0	1Suff PseudoStemNW	14	585501	mymbolic	0.0	1.0	False
586.634	0.0	2Suff w/ Lat.	21	586634	perfectionist	1.0	0.0	False
588.41	0.0	1Suff PseudoStemNW	14	588410	comburer	0.0	1.0	False
589.477	0.0	1Suff w/o Lat.	12	589477	prophetic	1.0	1.0	True
591.027	0.0	2Suff w/o Lat.	22	591027	noisily	1.0	1.0	True
592.286	0.0	2Suff Composite	23	592286	victimization	1.0	0.0	False
593.753	0.0	2Suff PseudoStemNW	24	593753	spippery	0.0	1.0	False
594.979	0.0	2Suff RealStemNW	25	594979	sensfulness	0.0	0.0	True
596.563	0.0	0Suff NW	4	596563	haint	0.0	1.0	False
597.588	0.0	1Suff w/o Lat.	12	597588	rightful	1.0	0.0	False
598.922	0.0	2Suff Composite	23	598922	valuation	1.0	1.0	True
600.922	0.0	0Suff NW	4	600922	efforn	0.0	1.0	False
601.981	0.0	2Suff w/o Lat.	22	601981	humanistic	1.0	0.0	False
603.631	0.0	0Suff w/o Lat.	2	603631	cease	1.0	0.0	False
604.965	0.0	1Suff RealStemNW	15	604965	classal	0.0	1.0	False
606.115	0.0	1Suff PseudoStemNW	14	606115	inflisation	0.0	1.0	False
607.308	0.0	2Suff w/ Lat.	21	607308	effectiveness	1.0	0.0	False
608.741	0.0	1Suff RealStemNW	15	608741	tireable	0.0	1.0	False
610.317	0.0	1Suff w/o Lat.	12	610317	greedy	1.0	0.0	False
611.434	0.0	2Suff RealStemNW	25	611434	noisery	0.0	1.0	False
612.567	0.0	2Suff w/o Lat.	22	612567	modulation	1.0	0.0	False
614.085	0.0	1Suff RealStemNW	15	614085	industryic	0.0	1.0	False
615.193	0.0	1Suff w/o Lat.	12	615193	momentary	1.0	0.0	False
616.619	0.0	2Suff w/o Lat.	22	616619	joyously	1.0	1.0	True
617.652	0.0	0Suff w/o Lat.	2	617652	end	1.0	0.0	False
618.811	0.0	2Suff RealStemNW	25	618811	creatously	0.0	1.0	False
620.17	0.0	0Suff NW	4	620170	precuke	0.0	1.0	False
621.22	0.0	1Suff w/ Lat.	11	621220	presumable	1.0	0.0	False
622.537	0.0	2Suff PseudoStemNW	24	622537	foffification	0.0	1.0	False
623.588	0.0	0Suff NW	4	623588	greard	0.0	1.0	False
624.638	0.0	2Suff RealStemNW	25	624638	intentality	0.0	1.0	False
626.088	0.0	1Suff w/o Lat.	12	626088	commercial	1.0	0.0	False
635.083	0.0	1Suff w/o Lat.	12	635083	brutal	1.0	0.0	False
636.183	0.0	1Suff w/o Lat.	12	636183	industrial	1.0	0.0	False
637.175	0.0	2Suff w/ Lat.	21	637175	explosively	1.0	0.0	False
638.284	0.0	2Suff w/ Lat.	21	638284	institutional	1.0	0.0	False
639.534	0.0	0Suff NW	4	639534	tedal	0.0	1.0	False
640.534	0.0	0Suff NW	4	640534	sothod	0.0	1.0	False
641.51	0.0	0Suff w/o Lat.	2	641510	custom	1.0	0.0	False
642.427	0.0	2Suff w/o Lat.	22	642427	vaccination	1.0	0.0	False
643.494	0.0	2Suff w/ Lat.	21	643494	expressionism	1.0	0.0	False
644.752	0.0	2Suff RealStemNW	25	644752	fruitiously	0.0	1.0	False
645.953	0.0	0Suff w/o Lat.	2	645953	virtue	1.0	0.0	False
647.036	0.0	0Suff NW	4	647036	hett	0.0	1.0	False
647.887	0.0	2Suff RealStemNW	25	647887	purifilessly	0.0	1.0	False
649.029	0.0	1Suff w/o Lat.	12	649029	admirable	1.0	0.0	False
650.071	0.0	1Suff w/o Lat.	12	650071	attentive	1.0	0.0	False
651.338	0.0	1Suff PseudoStemNW	14	651338	obwertive	0.0	1.0	False
652.263	0.0	1Suff RealStemNW	15	652263	traditionic	0.0	1.0	False
653.522	0.0	2Suff w/o Lat.	22	653522	personally	1.0	0.0	False
654.622	0.0	2Suff w/o Lat.	22	654622	justification	1.0	0.0	False
655.914	0.0	1Suff w/ Lat.	11	655914	provision	1.0	0.0	False
656.956	0.0	2Suff RealStemNW	25	656956	commerceional	0.0	1.0	False
658.332	0.0	0Suff w/o Lat.	2	658332	pure	1.0	0.0	False
659.307	0.0	0Suff NW	4	659307	indlidst	0.0	1.0	False
660.416	0.0	2Suff PseudoStemNW	24	660416	andezation	0.0	1.0	False
661.449	0.0	2Suff w/o Lat.	22	661449	luckily	1.0	0.0	False
662.474	0.0	2Suff PseudoStemNW	24	662474	hettlessly	0.0	1.0	False
663.458	0.0	2Suff PseudoStemNW	24	663458	darberously	0.0	1.0	False
664.5	0.0	0Suff NW	4	664500	colliff	0.0	1.0	False
665.375	0.0	1Suff PseudoStemNW	14	665375	ewilsence	0.0	1.0	False
666.384	0.0	1Suff w/o Lat.	12	666384	dangerous	1.0	0.0	False
667.484	0.0	2Suff w/o Lat.	22	667484	nationality	1.0	0.0	False
668.601	0.0	2Suff w/o Lat.	22	668601	secondarily	1.0	0.0	False
670.194	0.0	2Suff RealStemNW	25	670194	valufully	0.0	1.0	False
671.602	0.0	2Suff w/o Lat.	22	671602	feverishly	1.0	0.0	False
673.161	0.0	2Suff w/o Lat.	22	673161	personalize	1.0	0.0	False
674.637	0.0	1Suff w/o Lat.	12	674637	joyous	1.0	1.0	True
675.695	0.0	1Suff RealStemNW	15	675695	modulion	0.0	1.0	False
676.854	0.0	0Suff NW	4	676854	hunen	0.0	1.0	False
677.713	0.0	0Suff w/o Lat.	2	677713	person	1.0	0.0	False
678.704	0.0	2Suff RealStemNW	25	678704	inspiratality	0.0	1.0	False
680.213	0.0	1Suff w/o Lat.	12	680213	powerful	1.0	0.0	False
681.064	0.0	1Suff RealStemNW	15	681064	commerceic	0.0	1.0	False
682.239	0.0	2Suff PseudoStemNW	24	682239	conspodively	0.0	1.0	False
683.864	0.0	1Suff w/o Lat.	12	683864	methodical	1.0	0.0	False
685.957	0.0	0Suff NW	4	685957	spip	0.0	1.0	False
686.957	0.0	2Suff w/o Lat.	22	686957	civilization	1.0	0.0	False
688.124	0.0	2Suff w/o Lat.	22	688124	classical	1.0	0.0	False
689.108	0.0	1Suff w/o Lat.	12	689108	lonely	1.0	0.0	False
689.941	0.0	0Suff NW	4	689941	meleft	0.0	1.0	False
691.0	0.0	0Suff w/ Lat.	1	691000	intend	1.0	0.0	False
692.009	0.0	1Suff w/o Lat.	12	692009	fortunate	1.0	0.0	False
693.101	0.0	1Suff PseudoStemNW	14	693101	allendive	0.0	1.0	False
693.809	0.0	2Suff w/o Lat.	22	693809	modernistic	1.0	0.0	False
695.26	0.0	1Suff RealStemNW	15	695260	abolitate	0.0	1.0	False
696.46	0.0	1Suff PseudoStemNW	14	696460	nolfy	0.0	1.0	False
697.485	0.0	0Suff w/o Lat.	2	697485	effort	1.0	0.0	False
698.461	0.0	1Suff PseudoStemNW	14	698461	vetcinate	0.0	1.0	False
699.586	0.0	1Suff PseudoStemNW	14	699586	indlidstive	0.0	1.0	False
700.686	0.0	1Suff RealStemNW	15	700686	fortunion	0.0	1.0	False
701.753	0.0	1Suff PseudoStemNW	14	701753	selvual	0.0	1.0	False
702.762	0.0	1Suff RealStemNW	15	702762	foolory	0.0	1.0	False
703.779	0.0	0Suff NW	4	703779	combure	0.0	1.0	False
704.954	0.0	2Suff w/o Lat.	22	704954	variability	1.0	0.0	False
706.146	0.0	2Suff RealStemNW	25	706146	attentfully	0.0	0.0	True
707.563	0.0	0Suff w/o Lat.	2	707563	vaccine	1.0	0.0	False
708.597	0.0	1Suff w/o Lat.	12	708597	comparative	1.0	0.0	False
709.747	0.0	1Suff RealStemNW	15	709747	mournive	0.0	1.0	False
710.756	0.0	0Suff w/o Lat.	2	710756	lone	1.0	1.0	True
711.84	0.0	2Suff RealStemNW	25	711840	neediously	0.0	1.0	False
713.165	0.0	2Suff PseudoStemNW	24	713165	pipsonally	0.0	1.0	False
714.19	0.0	2Suff Composite	23	714190	annexation	1.0	1.0	True
715.399	0.0	0Suff w/o Lat.	2	715399	joy	1.0	0.0	False
716.508	0.0	0Suff NW	4	716508	perfall	0.0	1.0	False
717.5	0.0	2Suff PseudoStemNW	24	717500	comberatively	0.0	1.0	False
718.667	0.0	0Suff w/o Lat.	2	718667	method	1.0	0.0	False
719.617	0.0	0Suff w/o Lat.	2	719617	need	1.0	0.0	False
720.467	0.0	2Suff RealStemNW	25	720467	brutantly	0.0	0.0	True
721.668	0.0	1Suff w/o Lat.	12	721668	secondary	1.0	0.0	False
722.61	0.0	2Suff w/o Lat.	22	722610	clinically	1.0	0.0	False
724.269	0.0	1Suff w/o Lat.	12	724269	herbal	1.0	0.0	False
725.452	0.0	2Suff RealStemNW	25	725452	nullifilessly	0.0	1.0	False
726.861	0.0	2Suff w/o Lat.	22	726861	drunkenness	1.0	0.0	False
727.961	0.0	1Suff PseudoStemNW	14	727961	comfernable	0.0	1.0	False
729.395	0.0	1Suff w/o Lat.	12	729395	sensual	1.0	0.0	False
730.379	0.0	2Suff w/o Lat.	22	730379	dangerously	1.0	1.0	True
731.096	0.0	1Suff PseudoStemNW	14	731096	orner	0.0	1.0	False
732.213	0.0	2Suff PseudoStemNW	24	732213	grearively	0.0	1.0	False
733.738	0.0	1Suff w/ Lat.	11	733738	exception	1.0	0.0	False
734.863	0.0	2Suff PseudoStemNW	24	734863	coyimally	0.0	1.0	False
735.889	0.0	2Suff w/o Lat.	22	735889	personality	1.0	0.0	False
737.223	0.0	1Suff RealStemNW	15	737223	fertilist	0.0	0.0	True
738.506	0.0	0Suff NW	4	738506	nolave	0.0	1.0	False
739.748	0.0	0Suff NW	4	739748	arp	0.0	1.0	False
740.874	0.0	1Suff RealStemNW	15	740874	conductful	0.0	0.0	True
741.907	0.0	2Suff PseudoStemNW	24	741907	vetcination	0.0	1.0	False
743.166	0.0	1Suff w/o Lat.	12	743166	owner	1.0	0.0	False
744.15	0.0	2Suff RealStemNW	25	744150	commerceical	0.0	1.0	False
745.083	0.0	1Suff w/o Lat.	12	745083	customary	1.0	0.0	False
746.625	0.0	2Suff w/o Lat.	22	746625	momentarily	1.0	0.0	False
747.942	0.0	2Suff Composite	23	747942	degradation	1.0	0.0	False
749.351	0.0	1Suff PseudoStemNW	14	749351	arpive	0.0	1.0	False
750.418	0.0	1Suff RealStemNW	15	750418	cyclal	0.0	1.0	False
751.802	0.0	0Suff w/o Lat.	2	751802	mourn	1.0	0.0	False
752.911	0.0	0Suff NW	4	752911	movect	0.0	1.0	False
754.419	0.0	2Suff RealStemNW	25	754419	selectously	0.0	1.0	False
756.22	0.0	2Suff w/o Lat.	22	756220	helplessly	1.0	0.0	False
757.354	0.0	0Suff NW	4	757354	comfern	0.0	1.0	False
758.471	0.0	0Suff w/o Lat.	2	758471	master	1.0	0.0	False
759.563	0.0	2Suff w/o Lat.	22	759563	virtuosity	1.0	1.0	True
760.696	0.0	2Suff w/o Lat.	22	760696	admirably	1.0	0.0	False
761.872	0.0	2Suff w/o Lat.	22	761872	nationalist	1.0	0.0	False
763.297	0.0	1Suff w/ Lat.	11	763297	perfection	1.0	0.0	False
764.222	0.0	2Suff PseudoStemNW	24	764222	connurtivity	0.0	1.0	False
765.456	0.0	1Suff PseudoStemNW	14	765456	precukable	0.0	1.0	False
766.64	0.0	2Suff Composite	23	766640	orientation	1.0	0.0	False
767.832	0.0	0Suff w/ Lat.	1	767832	excess	1.0	0.0	False
769.324	0.0	0Suff w/o Lat.	2	769324	class	1.0	0.0	False
770.449	0.0	2Suff PseudoStemNW	24	770449	bleadfully	0.0	1.0	False
772.092	0.0	0Suff NW	4	772092	slex	0.0	1.0	False
789.305	0.0	0Suff NW	4	789305	loke	0.0	1.0	False
790.389	0.0	1Suff w/o Lat.	12	790389	traditional	1.0	0.0	False
791.389	0.0	0Suff NW	4	791389	simn	0.0	1.0	False
792.356	0.0	1Suff w/ Lat.	11	792356	expression	1.0	0.0	False
793.34	0.0	2Suff w/o Lat.	22	793340	preferably	1.0	0.0	False
795.174	0.0	1Suff w/o Lat.	12	795174	courageous	1.0	0.0	False
796.707	0.0	2Suff w/o Lat.	22	796707	mournfully	1.0	0.0	False
797.724	0.0	2Suff w/ Lat.	21	797724	effectively	1.0	0.0	False
799.067	0.0	0Suff NW	4	799067	cronition	0.0	1.0	False
800.125	0.0	0Suff NW	4	800125	trith	0.0	1.0	False
801.109	0.0	1Suff w/o Lat.	12	801109	righteous	1.0	1.0	True
802.601	0.0	2Suff RealStemNW	25	802601	synchronilessly	0.0	1.0	False
804.16	0.0	0Suff w/o Lat.	2	804160	sharp	1.0	0.0	False
805.027	0.0	2Suff w/o Lat.	22	805027	wonderfully	1.0	0.0	False
806.044	0.0	0Suff w/o Lat.	2	806044	relent	1.0	1.0	True
807.111	0.0	1Suff PseudoStemNW	14	807111	janiable	0.0	1.0	False
808.086	0.0	1Suff RealStemNW	15	808086	stylify	0.0	1.0	False
809.095	0.0	2Suff RealStemNW	25	809095	selectfully	0.0	0.0	True
810.278	0.0	2Suff PseudoStemNW	24	810278	cronitionally	0.0	1.0	False
811.562	0.0	2Suff RealStemNW	25	811562	useiveness	0.0	1.0	False
812.746	0.0	0Suff w/ Lat.	1	812746	explode	1.0	0.0	False
813.879	0.0	1Suff PseudoStemNW	14	813879	atstartive	0.0	1.0	False
814.938	0.0	1Suff w/o Lat.	12	814938	kindly	1.0	0.0	False
816.03	0.0	2Suff PseudoStemNW	24	816030	blunkenness	0.0	1.0	False
817.097	0.0	2Suff w/o Lat.	22	817097	nationally	1.0	0.0	False
818.047	0.0	2Suff w/o Lat.	22	818047	heartily	1.0	0.0	False
819.431	0.0	2Suff w/o Lat.	22	819431	fertilization	1.0	0.0	False
820.682	0.0	2Suff w/o Lat.	22	820682	variously	1.0	0.0	False
821.799	0.0	1Suff w/o Lat.	12	821799	ceaseless	1.0	0.0	False
823.374	0.0	0Suff w/o Lat.	2	823374	noise	1.0	0.0	False
824.249	0.0	0Suff w/o Lat.	2	824249	magic	1.0	0.0	False
825.066	0.0	0Suff NW	4	825066	mocond	0.0	1.0	False
826.158	0.0	0Suff w/o Lat.	2	826158	help	1.0	1.0	True
826.675	0.0	2Suff w/o Lat.	22	826675	joyfully	1.0	0.0	False
827.75	0.0	1Suff PseudoStemNW	14	827750	arbument	0.0	1.0	False
828.892	0.0	0Suff w/ Lat.	1	828892	institute	1.0	0.0	False
830.501	0.0	1Suff PseudoStemNW	14	830501	esressive	0.0	1.0	False
832.827	0.0	0Suff NW	4	832827	dester	0.0	1.0	False
834.344	0.0	1Suff w/o Lat.	12	834344	modernist	1.0	0.0	False
835.478	0.0	2Suff RealStemNW	25	835478	customantly	0.0	1.0	False
836.845	0.0	2Suff w/o Lat.	22	836845	respectively	1.0	0.0	False
837.887	0.0	0Suff w/o Lat.	2	837887	human	1.0	0.0	False
838.954	0.0	0Suff NW	4	838954	ewils	0.0	1.0	False
839.921	0.0	2Suff RealStemNW	25	839921	noticeator	0.0	1.0	False
840.879	0.0	0Suff w/o Lat.	2	840879	notice	1.0	0.0	False
841.813	0.0	2Suff RealStemNW	25	841813	regionical	0.0	1.0	False
843.113	0.0	2Suff w/o Lat.	22	843113	regionally	1.0	0.0	False
844.247	0.0	0Suff NW	4	844247	bruke	0.0	1.0	False
845.347	0.0	2Suff w/o Lat.	22	845347	endlessly	1.0	0.0	False
846.414	0.0	2Suff RealStemNW	25	846414	lustery	0.0	1.0	False
847.323	0.0	2Suff PseudoStemNW	24	847323	pogularization	0.0	1.0	False
848.423	0.0	2Suff w/o Lat.	22	848423	prophetically	1.0	1.0	True
849.607	0.0	1Suff w/o Lat.	12	849607	helpful	1.0	0.0	False
850.607	0.0	2Suff w/o Lat.	22	850607	cyclical	1.0	0.0	False
852.491	0.0	1Suff PseudoStemNW	14	852491	healty	0.0	1.0	False
853.758	0.0	0Suff NW	4	853758	conwode	0.0	1.0	False
854.717	0.0	2Suff w/o Lat.	22	854717	instinctively	1.0	0.0	False
856.001	0.0	2Suff RealStemNW	25	856001	identifilessly	0.0	1.0	False
857.476	0.0	0Suff NW	4	857476	coatage	0.0	1.0	False
858.635	0.0	2Suff PseudoStemNW	24	858635	colliffively	0.0	1.0	False
859.619	0.0	1Suff w/ Lat.	11	859619	explosive	1.0	0.0	False
860.652	0.0	0Suff w/o Lat.	2	860652	lust	1.0	0.0	False
861.794	0.0	2Suff w/o Lat.	22	861794	creatively	1.0	0.0	False
862.744	0.0	2Suff PseudoStemNW	24	862744	navounalism	0.0	1.0	False
863.87	0.0	2Suff w/o Lat.	22	863870	methodically	1.0	0.0	False
865.004	0.0	1Suff PseudoStemNW	14	865004	mocondary	0.0	1.0	False
866.071	0.0	0Suff w/o Lat.	2	866071	cycle	1.0	0.0	False
867.121	0.0	1Suff w/o Lat.	12	867121	computer	1.0	0.0	False
867.996	0.0	0Suff w/o Lat.	2	867996	compare	1.0	0.0	False
868.921	0.0	1Suff RealStemNW	15	868921	passionion	0.0	1.0	False
870.222	0.0	0Suff w/o Lat.	2	870222	wonder	1.0	0.0	False
871.347	0.0	1Suff RealStemNW	15	871347	institutate	0.0	0.0	True
872.431	0.0	2Suff w/o Lat.	22	872431	loveliness	1.0	1.0	True
873.489	0.0	1Suff RealStemNW	15	873489	selectful	0.0	0.0	True
875.273	0.0	1Suff PseudoStemNW	14	875273	shacten	0.0	1.0	False
876.524	0.0	1Suff w/o Lat.	12	876524	lovely	1.0	0.0	False
877.457	0.0	1Suff w/o Lat.	12	877457	broker	1.0	0.0	False
878.608	0.0	2Suff w/o Lat.	22	878608	procedural	1.0	0.0	False
879.641	0.0	2Suff PseudoStemNW	24	879641	mymbolically	0.0	1.0	False
880.692	0.0	1Suff w/o Lat.	12	880692	existence	1.0	0.0	False
881.959	0.0	2Suff PseudoStemNW	24	881959	hettlessness	0.0	1.0	False
883.151	0.0	2Suff RealStemNW	25	883151	feverality	0.0	1.0	False
884.134	0.0	2Suff Composite	23	884134	filtration	1.0	0.0	False
885.168	0.0	1Suff PseudoStemNW	14	885168	omlical	0.0	1.0	False
886.16	0.0	2Suff PseudoStemNW	24	886160	healtily	0.0	1.0	False
887.21	0.0	2Suff PseudoStemNW	24	887210	murpifully	0.0	1.0	False
888.136	0.0	1Suff PseudoStemNW	14	888136	lokely	0.0	1.0	False
889.178	0.0	1Suff RealStemNW	15	889178	effortable	0.0	1.0	False
890.536	0.0	1Suff RealStemNW	15	890536	victimist	0.0	0.0	True
891.678	0.0	1Suff w/o Lat.	12	891678	humanist	1.0	0.0	False
892.679	0.0	0Suff NW	4	892679	victap	0.0	1.0	False
893.562	0.0	2Suff PseudoStemNW	24	893562	sedulation	0.0	1.0	False
894.813	0.0	2Suff RealStemNW	25	894813	clinicical	0.0	0.0	True
895.88	0.0	2Suff w/o Lat.	22	895880	activity	1.0	0.0	False
897.155	0.0	2Suff Composite	23	897155	unification	1.0	0.0	False
898.214	0.0	2Suff RealStemNW	25	898214	excellalism	0.0	1.0	False
899.281	0.0	0Suff w/o Lat.	2	899281	love	1.0	0.0	False
900.156	0.0	1Suff w/o Lat.	12	900156	magical	1.0	0.0	False
901.231	0.0	2Suff PseudoStemNW	24	901231	pipsonalize	0.0	1.0	False
902.19	0.0	2Suff w/o Lat.	22	902190	truthfulness	1.0	0.0	False
903.215	0.0	0Suff NW	4	903215	copperce	0.0	1.0	False
904.132	0.0	1Suff RealStemNW	15	904132	collectful	0.0	0.0	True
905.166	0.0	1Suff RealStemNW	15	905166	kinden	0.0	1.0	False
906.024	0.0	0Suff w/o Lat.	2	906024	kind	1.0	0.0	False
907.108	0.0	1Suff w/o Lat.	12	907108	lusty	1.0	0.0	False
908.125	0.0	0Suff w/o Lat.	2	908125	monument	1.0	0.0	False
909.242	0.0	2Suff PseudoStemNW	24	909242	massienately	0.0	1.0	False
910.359	0.0	1Suff w/o Lat.	12	910359	argument	1.0	0.0	False
911.576	0.0	2Suff w/o Lat.	22	911576	courageously	1.0	0.0	False
912.843	0.0	2Suff w/o Lat.	22	912843	commercially	1.0	0.0	False
914.21	0.0	2Suff RealStemNW	25	914210	actional	0.0	0.0	True
915.236	0.0	2Suff RealStemNW	25	915236	momentantly	0.0	1.0	False
916.811	0.0	2Suff PseudoStemNW	24	916811	selvuality	0.0	1.0	False
917.886	0.0	1Suff PseudoStemNW	14	917886	pipsonal	0.0	1.0	False
918.778	0.0	2Suff w/o Lat.	22	918778	tactically	1.0	0.0	False
920.004	0.0	2Suff PseudoStemNW	24	920004	byvrical	0.0	1.0	False
920.921	0.0	1Suff RealStemNW	15	920921	magicic	0.0	1.0	False
921.971	0.0	0Suff NW	4	921971	ind	0.0	1.0	False
922.955	0.0	2Suff RealStemNW	25	922955	civilability	0.0	1.0	False
930.532	0.0	2Suff PseudoStemNW	24	930532	melidification	0.0	1.0	False
931.541	0.0	0Suff w/o Lat.	2	931541	fortune	1.0	0.0	False
932.491	0.0	2Suff RealStemNW	25	932491	assertishness	0.0	1.0	False
933.641	0.0	0Suff NW	4	933641	cuppom	0.0	1.0	False
934.583	0.0	2Suff w/o Lat.	22	934583	kindliness	1.0	1.0	True
935.817	0.0	2Suff PseudoStemNW	24	935817	faicification	0.0	1.0	False
936.726	0.0	2Suff Composite	23	936726	altercation	1.0	1.0	True
937.659	0.0	2Suff PseudoStemNW	24	937659	navounality	0.0	1.0	False
938.618	0.0	2Suff PseudoStemNW	24	938618	flivituality	0.0	1.0	False
939.61	0.0	0Suff NW	4	939610	indolsty	0.0	1.0	False
940.61	0.0	2Suff w/o Lat.	22	940610	rightfully	1.0	0.0	False
942.177	0.0	2Suff PseudoStemNW	24	942177	pipsonality	0.0	1.0	False
943.461	0.0	2Suff RealStemNW	25	943461	instinctfully	0.0	0.0	True
944.736	0.0	1Suff w/o Lat.	12	944736	feverish	1.0	1.0	True
945.753	0.0	1Suff w/o Lat.	12	945753	flexible	1.0	0.0	False
946.729	0.0	1Suff w/o Lat.	12	946729	excellent	1.0	0.0	False
947.796	0.0	1Suff w/o Lat.	12	947796	suitable	1.0	0.0	False
948.738	0.0	2Suff RealStemNW	25	948738	stylional	0.0	1.0	False
950.071	0.0	1Suff w/o Lat.	12	950071	cyclic	1.0	0.0	False
951.088	0.0	0Suff w/o Lat.	2	951088	FALSE	1.0	0.0	False
952.072	0.0	1Suff w/o Lat.	12	952072	masterful	1.0	0.0	False
953.064	0.0	1Suff w/ Lat.	11	953064	conclusive	1.0	0.0	False
954.098	0.0	2Suff PseudoStemNW	24	954098	arpivity	0.0	1.0	False
955.165	0.0	2Suff PseudoStemNW	24	955165	jokfully	0.0	1.0	False
957.39	0.0	2Suff Composite	23	957390	solidification	1.0	0.0	False
958.649	0.0	2Suff RealStemNW	25	958649	prophetionist	0.0	1.0	False
959.899	0.0	2Suff PseudoStemNW	24	959899	gunderfully	0.0	1.0	False
960.891	0.0	1Suff w/ Lat.	11	960891	objection	1.0	0.0	False
961.85	0.0	0Suff NW	4	961850	moolure	0.0	1.0	False
962.925	0.0	2Suff RealStemNW	25	962925	whimsally	0.0	1.0	False
963.934	0.0	0Suff w/ Lat.	1	963934	exclude	1.0	0.0	False
965.051	0.0	1Suff PseudoStemNW	14	965051	darberous	0.0	1.0	False
966.126	0.0	1Suff w/o Lat.	12	966126	selfless	1.0	0.0	False
967.052	0.0	0Suff w/o Lat.	2	967052	expand	1.0	0.0	False
968.135	0.0	2Suff PseudoStemNW	24	968135	trithfulness	0.0	1.0	False
969.227	0.0	0Suff w/o Lat.	2	969227	own	1.0	0.0	False
970.161	0.0	2Suff PseudoStemNW	24	970161	atstartively	0.0	1.0	False
971.361	0.0	2Suff w/ Lat.	21	971361	presumably	1.0	0.0	False
972.462	0.0	0Suff w/o Lat.	2	972462	dread	1.0	0.0	False
974.137	0.0	2Suff w/o Lat.	22	974137	heroically	1.0	1.0	True
975.246	0.0	1Suff w/ Lat.	11	975246	exclusive	1.0	0.0	False
976.263	0.0	0Suff w/ Lat.	1	976263	compose	1.0	0.0	False
977.338	0.0	2Suff w/o Lat.	22	977338	culturally	1.0	0.0	False
978.205	0.0	0Suff w/ Lat.	1	978205	provide	1.0	0.0	False
979.205	0.0	2Suff w/o Lat.	22	979205	argumentative	1.0	0.0	False
980.272	0.0	1Suff RealStemNW	15	980272	exceptate	0.0	1.0	False
981.406	0.0	2Suff PseudoStemNW	24	981406	awnfully	0.0	1.0	False
982.565	0.0	1Suff w/o Lat.	12	982565	measurable	1.0	0.0	False
983.673	0.0	2Suff w/o Lat.	22	983673	creativity	1.0	0.0	False
984.632	0.0	1Suff PseudoStemNW	14	984632	awnful	0.0	1.0	False
985.707	0.0	1Suff PseudoStemNW	14	985707	selveless	0.0	1.0	False
986.758	0.0	0Suff NW	4	986758	selp	0.0	1.0	False
987.766	0.0	0Suff NW	4	987766	lecer	0.0	1.0	False
988.7	0.0	0Suff w/o Lat.	2	988700	fool	1.0	0.0	False
989.85	0.0	0Suff NW	4	989850	arbub	0.0	1.0	False
990.917	0.0	2Suff Composite	23	990917	paradoxical	1.0	1.0	True
991.793	0.0	1Suff w/o Lat.	12	991793	truthful	1.0	0.0	False
992.768	0.0	2Suff w/o Lat.	22	992768	suitability	1.0	0.0	False
993.76	0.0	2Suff w/o Lat.	22	993760	senselessly	1.0	0.0	False
994.96	0.0	2Suff w/o Lat.	22	994960	lustily	1.0	1.0	True
995.902	0.0	2Suff w/o Lat.	22	995902	selectivity	1.0	0.0	False
997.027	0.0	2Suff w/o Lat.	22	997027	existential	1.0	0.0	False
998.069	0.0	2Suff RealStemNW	25	998069	artional	0.0	1.0	False
999.211	0.0	1Suff w/o Lat.	12	999211	helpless	1.0	0.0	False
1000.195	0.0	0Suff NW	4	1000195	connurt	0.0	1.0	False
1001.329	0.0	0Suff NW	4	1001329	vectue	0.0	0.0	True
1002.379	0.0	1Suff PseudoStemNW	14	1002379	jokful	0.0	1.0	False
1003.805	0.0	2Suff w/o Lat.	22	1003805	spiritually	1.0	0.0	False
1004.872	0.0	2Suff Composite	23	1004872	vulgarization	1.0	0.0	False
1006.122	0.0	2Suff w/ Lat.	21	1006122	perfectionism	1.0	0.0	False
1007.372	0.0	2Suff Composite	23	1007372	hierarchical	1.0	0.0	False
1008.414	0.0	2Suff RealStemNW	25	1008414	opticical	0.0	0.0	True
1009.998	0.0	1Suff w/o Lat.	12	1009998	virtuous	1.0	0.0	False
1010.932	0.0	0Suff NW	4	1010932	nolfs	0.0	1.0	False
1011.832	0.0	0Suff NW	4	1011832	jist	0.0	1.0	False
1012.766	0.0	2Suff Composite	23	1012766	allegorical	1.0	1.0	True
1013.841	0.0	0Suff NW	4	1013841	pipson	0.0	1.0	False
1014.708	0.0	1Suff w/o Lat.	12	1014708	symbolic	1.0	0.0	False
1015.758	0.0	2Suff PseudoStemNW	24	1015758	patudation	0.0	1.0	False
1017.034	0.0	1Suff w/o Lat.	12	1017034	clinical	1.0	0.0	False
1018.109	0.0	2Suff RealStemNW	25	1018109	joyality	0.0	1.0	False
1019.084	0.0	1Suff w/o Lat.	12	1019084	classic	1.0	0.0	False
1020.035	0.0	2Suff RealStemNW	25	1020035	drunkoral	0.0	1.0	False
1020.96	0.0	2Suff PseudoStemNW	24	1020960	mourdfully	0.0	1.0	False
1021.843	0.0	2Suff w/o Lat.	22	1021843	helplessness	1.0	0.0	False
1022.994	0.0	1Suff PseudoStemNW	14	1022994	ludsy	0.0	1.0	False
1023.977	0.0	2Suff RealStemNW	25	1023977	criticical	0.0	1.0	False
1025.32	0.0	2Suff RealStemNW	25	1025320	masterively	0.0	0.0	True
1026.737	0.0	2Suff w/o Lat.	22	1026737	falsification	1.0	0.0	False
1027.987	0.0	0Suff NW	4	1027987	excrode	0.0	1.0	False
1029.171	0.0	1Suff w/o Lat.	12	1029171	variable	1.0	0.0	False
1030.229	0.0	1Suff w/o Lat.	12	1030229	regional	1.0	0.0	False
1031.238	0.0	2Suff w/o Lat.	22	1031238	excellently	1.0	0.0	False
1032.538	0.0	2Suff RealStemNW	25	1032538	expansishness	0.0	1.0	False
1033.747	0.0	2Suff PseudoStemNW	24	1033747	paragewical	0.0	1.0	False
1034.881	0.0	1Suff RealStemNW	15	1034881	momentish	0.0	1.0	False
1036.165	0.0	2Suff RealStemNW	25	1036165	alterlessly	0.0	0.0	True
1037.982	0.0	2Suff w/o Lat.	22	1037982	suitably	1.0	0.0	False
1038.974	0.0	1Suff RealStemNW	15	1038974	composian	0.0	1.0	False
1040.082	0.0	0Suff NW	4	1040082	shact	0.0	1.0	False
1041.066	0.0	0Suff NW	4	1041066	assork	0.0	1.0	False
1041.908	0.0	1Suff PseudoStemNW	14	1041908	cutfural	0.0	1.0	False
1042.808	0.0	1Suff PseudoStemNW	14	1042808	hainy	0.0	1.0	False
1043.825	0.0	1Suff PseudoStemNW	14	1043825	desterful	0.0	1.0	False
1044.792	0.0	1Suff w/ Lat.	11	1044792	conductive	1.0	0.0	False
1045.951	0.0	2Suff w/o Lat.	22	1045951	stylistic	1.0	1.0	True
1047.41	0.0	2Suff PseudoStemNW	24	1047410	herfalist	0.0	1.0	False
1048.518	0.0	2Suff Composite	23	1048518	secularization	1.0	0.0	False
1050.002	0.0	2Suff PseudoStemNW	24	1050002	shactener	0.0	1.0	False
1051.069	0.0	1Suff RealStemNW	15	1051069	falsant	0.0	1.0	False
1052.061	0.0	0Suff NW	4	1052061	blunk	0.0	1.0	False
1053.395	0.0	1Suff RealStemNW	15	1053395	slippor	0.0	1.0	False
1054.262	0.0	1Suff RealStemNW	15	1054262	civilist	0.0	0.0	True
1055.329	0.0	0Suff NW	4	1055329	cank	0.0	1.0	False
1056.254	0.0	2Suff w/ Lat.	21	1056254	intentional	1.0	0.0	False
1057.321	0.0	1Suff w/o Lat.	12	1057321	merciful	1.0	0.0	False
1058.43	0.0	2Suff PseudoStemNW	24	1058430	kibsliness	0.0	1.0	False
1059.688	0.0	0Suff w/o Lat.	2	1059688	tire	1.0	0.0	False
1061.414	0.0	0Suff NW	4	1061414	franic	0.0	1.0	False
1069.483	0.0	0Suff w/o Lat.	2	1069483	optic	1.0	0.0	False
1070.5	0.0	2Suff PseudoStemNW	24	1070500	lokeliness	0.0	1.0	False
1071.459	0.0	2Suff w/o Lat.	22	1071459	artistic	1.0	0.0	False
1072.467	0.0	0Suff w/o Lat.	2	1072467	greed	1.0	0.0	False
1073.409	0.0	2Suff w/o Lat.	22	1073409	loneliness	1.0	0.0	False
1074.376	0.0	2Suff w/o Lat.	22	1074376	beautifully	1.0	0.0	False
1075.41	0.0	1Suff w/o Lat.	12	1075410	comical	1.0	0.0	False
1076.685	0.0	0Suff NW	4	1076685	prosood	0.0	1.0	False
1077.652	0.0	2Suff w/o Lat.	22	1077652	truthfully	1.0	0.0	False
1078.603	0.0	2Suff RealStemNW	25	1078603	legalability	0.0	0.0	True
1080.195	0.0	1Suff w/o Lat.	12	1080195	abolition	1.0	0.0	False
1081.645	0.0	2Suff w/o Lat.	22	1081645	fortunately	1.0	0.0	False
1082.671	0.0	0Suff NW	4	1082671	cedil	0.0	1.0	False
1083.779	0.0	1Suff PseudoStemNW	14	1083779	prosodure	0.0	1.0	False
1084.98	0.0	2Suff RealStemNW	25	1084980	explosfully	0.0	1.0	False
1086.647	0.0	1Suff RealStemNW	15	1086647	provisate	0.0	1.0	False
1088.03	0.0	0Suff NW	4	1088030	cutfure	0.0	1.0	False
1089.181	0.0	2Suff w/o Lat.	22	1089181	traditionally	1.0	0.0	False
1090.39	0.0	2Suff PseudoStemNW	24	1090390	fipitation	0.0	1.0	False
1091.465	0.0	1Suff RealStemNW	15	1091465	flexless	0.0	0.0	True
1092.865	0.0	0Suff NW	4	1092865	ceant	0.0	1.0	False
1093.891	0.0	2Suff PseudoStemNW	24	1093891	utiethation	0.0	1.0	False
1094.908	0.0	2Suff Composite	23	1094908	ordination	1.0	1.0	True
1096.491	0.0	2Suff PseudoStemNW	24	1096491	cankfully	0.0	1.0	False
1097.475	0.0	2Suff w/o Lat.	22	1097475	selflessness	1.0	0.0	False
1098.659	0.0	1Suff RealStemNW	15	1098659	needable	0.0	0.0	True
1099.901	0.0	2Suff RealStemNW	25	1099901	objectfully	0.0	0.0	True
1100.851	0.0	1Suff w/o Lat.	12	1100851	selfish	1.0	0.0	False
1101.91	0.0	2Suff w/o Lat.	22	1101910	actively	1.0	0.0	False
1102.802	0.0	2Suff PseudoStemNW	24	1102802	hettfully	0.0	1.0	False
1103.86	0.0	0Suff NW	4	1103860	cheher	0.0	1.0	False
1104.844	0.0	0Suff w/o Lat.	2	1104844	style	1.0	0.0	False
1106.078	0.0	2Suff RealStemNW	25	1106078	dergadfully	0.0	1.0	False
1107.211	0.0	2Suff w/o Lat.	22	1107211	computerize	1.0	0.0	False
1109.162	0.0	2Suff w/o Lat.	22	1109162	sensibility	1.0	0.0	False
1110.221	0.0	1Suff w/o Lat.	12	1110221	creative	1.0	0.0	False
1111.088	0.0	2Suff RealStemNW	25	1111088	computitely	0.0	1.0	False
1112.53	0.0	2Suff PseudoStemNW	24	1112530	comburation	0.0	1.0	False
1114.23	0.0	0Suff w/o Lat.	2	1114230	continue	1.0	0.0	False
1115.339	0.0	1Suff w/o Lat.	12	1115339	artful	1.0	0.0	False
1117.098	0.0	2Suff RealStemNW	25	1117098	embarkfully	0.0	0.0	True
1118.34	0.0	0Suff w/o Lat.	2	1118340	module	1.0	0.0	False
1119.415	0.0	1Suff w/o Lat.	12	1119415	monumental	1.0	0.0	False
1120.449	0.0	1Suff PseudoStemNW	14	1120449	herfal	0.0	1.0	False
1121.632	0.0	1Suff w/o Lat.	12	1121632	instinctive	1.0	0.0	False
1123.041	0.0	1Suff PseudoStemNW	14	1123041	gunderful	0.0	1.0	False
1124.05	0.0	2Suff PseudoStemNW	24	1124050	cheherably	0.0	1.0	False
1125.092	0.0	0Suff w/o Lat.	2	1125092	fruit	1.0	0.0	False
1126.184	0.0	0Suff w/o Lat.	2	1126184	truth	1.0	0.0	False
1127.159	0.0	0Suff NW	4	1127159	gunder	0.0	1.0	False
1128.101	0.0	2Suff PseudoStemNW	24	1128101	trithfully	0.0	1.0	False
1129.16	0.0	1Suff w/o Lat.	12	1129160	joyful	1.0	0.0	False
1130.168	0.0	2Suff PseudoStemNW	24	1130168	booftifully	0.0	1.0	False
1131.185	0.0	0Suff NW	4	1131185	fortord	0.0	1.0	False
1132.319	0.0	2Suff w/o Lat.	22	1132319	mercilessly	1.0	0.0	False
1133.486	0.0	2Suff RealStemNW	25	1133486	nationantly	0.0	1.0	False
1135.095	0.0	2Suff w/o Lat.	22	1135095	righteousness	1.0	0.0	False
1136.287	0.0	0Suff NW	4	1136287	sarument	0.0	1.0	False
1137.279	0.0	2Suff Composite	23	1137279	limitation	1.0	0.0	False
1138.379	0.0	0Suff w/o Lat.	2	1138379	heart	1.0	0.0	False
1139.363	0.0	2Suff w/ Lat.	21	1139363	inspirational	1.0	0.0	False
1140.363	0.0	1Suff w/o Lat.	12	1140363	various	1.0	0.0	False
1141.239	0.0	2Suff PseudoStemNW	24	1141239	effornively	0.0	1.0	False
1142.689	0.0	2Suff w/ Lat.	21	1142689	composition	1.0	0.0	False
1143.581	0.0	1Suff RealStemNW	15	1143581	relentable	0.0	1.0	False
1144.465	0.0	0Suff NW	4	1144465	jany	0.0	1.0	False
1145.482	0.0	2Suff w/o Lat.	22	1145482	assertiveness	1.0	0.0	False
1146.632	0.0	1Suff PseudoStemNW	14	1146632	booftiful	0.0	1.0	False
1147.599	0.0	0Suff w/o Lat.	2	1147599	clinic	1.0	0.0	False
1148.491	0.0	0Suff w/o Lat.	2	1148491	victim	1.0	1.0	True
1149.416	0.0	1Suff PseudoStemNW	14	1149416	recrernive	0.0	1.0	False
1150.708	0.0	2Suff Composite	23	1150708	solipsistic	1.0	1.0	True
1151.925	0.0	2Suff RealStemNW	25	1151925	respectfully	0.0	0.0	True
1152.967	0.0	2Suff PseudoStemNW	24	1152967	sarumentally	0.0	1.0	False
1154.001	0.0	1Suff w/o Lat.	12	1154001	falsify	1.0	0.0	False
1155.26	0.0	1Suff RealStemNW	15	1155260	monumentic	0.0	0.0	True
1156.41	0.0	2Suff RealStemNW	25	1156410	ceaseiously	0.0	1.0	False
1158.11	0.0	2Suff PseudoStemNW	24	1158110	mocondarily	0.0	1.0	False
1159.219	0.0	2Suff RealStemNW	25	1159219	sensator	0.0	0.0	True
1160.978	0.0	2Suff w/o Lat.	22	1160978	comfortably	1.0	0.0	False
1162.02	0.0	0Suff NW	4	1162020	orn	0.0	1.0	False
1163.02	0.0	2Suff PseudoStemNW	24	1163020	rinchfully	0.0	1.0	False
1163.971	0.0	0Suff w/o Lat.	2	1163971	herb	1.0	0.0	False
1164.912	0.0	2Suff Composite	23	1164912	synchronization	1.0	0.0	False
1166.921	0.0	1Suff w/o Lat.	12	1166921	fruitless	1.0	0.0	False
1168.214	0.0	2Suff RealStemNW	25	1168214	continliness	0.0	1.0	False
1169.289	0.0	0Suff w/o Lat.	2	1169289	symbol	1.0	0.0	False
1170.222	0.0	1Suff RealStemNW	15	1170222	selfable	0.0	0.0	True
1171.239	0.0	2Suff PseudoStemNW	24	1171239	arresogical	0.0	1.0	False
1172.181	0.0	0Suff NW	4	1172181	recrern	0.0	1.0	False
1173.315	0.0	1Suff RealStemNW	15	1173315	mercyive	0.0	1.0	False
1174.357	0.0	2Suff w/o Lat.	22	1174357	expansiveness	1.0	0.0	False
1176.174	0.0	0Suff NW	4	1176174	flivit	0.0	1.0	False
1177.15	0.0	2Suff w/o Lat.	22	1177150	magically	1.0	0.0	False
1178.058	0.0	0Suff w/o Lat.	2	1178058	fever	1.0	0.0	False
1179.025	0.0	1Suff w/o Lat.	12	1179025	relentless	1.0	0.0	False
1180.1	0.0	0Suff NW	4	1180100	podent	0.0	1.0	False
1181.167	0.0	2Suff PseudoStemNW	24	1181167	cladsification	0.0	1.0	False
1182.468	0.0	0Suff NW	4	1182468	herf	0.0	1.0	False
1183.51	0.0	0Suff w/o Lat.	2	1183510	breath	1.0	0.0	False
1184.368	0.0	2Suff w/o Lat.	22	1184368	greedily	1.0	0.0	False
1185.36	0.0	0Suff NW	4	1185360	exprede	0.0	1.0	False
1186.419	0.0	1Suff w/o Lat.	12	1186419	beautiful	1.0	0.0	False
1187.461	0.0	2Suff w/ Lat.	21	1187461	expressionist	1.0	0.0	False
1188.653	0.0	0Suff w/o Lat.	2	1188653	commerce	1.0	0.0	False
1189.803	0.0	0Suff NW	4	1189803	clade	0.0	1.0	False
1191.104	0.0	2Suff w/ Lat.	21	1191104	provisional	1.0	0.0	False
1192.363	0.0	0Suff NW	4	1192363	brole	0.0	1.0	False
1193.438	0.0	0Suff w/o Lat.	2	1193438	sense	1.0	0.0	False
1194.622	0.0	1Suff PseudoStemNW	14	1194622	londly	0.0	1.0	False
1195.98	0.0	1Suff w/o Lat.	12	1195980	foolish	1.0	0.0	False
