onset	duration	trial_type	value	sample	stimulus	is_word	response	correct
36.365	0.0	0Suff w/o Lat.	2	36365	occasion	1.0	0.0	False
37.357	0.0	1Suff w/o Lat.	12	37357	periodic	1.0	0.0	False
38.674	0.0	2Suff RealStemNW	25	38674	notural	0.0	1.0	False
40.008	0.0	0Suff NW	4	40008	prodfess	0.0	1.0	False
40.958	0.0	2Suff PseudoStemNW	24	40958	comlomation	0.0	1.0	False
42.475	0.0	0Suff NW	4	42475	stumia	0.0	1.0	False
43.409	0.0	1Suff RealStemNW	15	43409	immunist	0.0	1.0	False
44.776	0.0	2Suff w/o Lat.	22	44776	relativity	1.0	0.0	False
45.684	0.0	2Suff w/ Lat.	21	45684	conceptualize	1.0	0.0	False
46.626	0.0	2Suff w/o Lat.	22	46626	persuasively	1.0	0.0	False
48.319	0.0	0Suff NW	4	48319	eet	0.0	1.0	False
49.277	0.0	0Suff w/o Lat.	2	49277	compete	1.0	0.0	False
50.819	0.0	2Suff Composite	23	50819	confederation	1.0	0.0	False
51.953	0.0	2Suff Composite	23	51953	dramatization	1.0	0.0	False
53.295	0.0	1Suff w/o Lat.	12	53295	believable	1.0	0.0	False
54.237	0.0	1Suff w/o Lat.	12	54237	speedy	1.0	0.0	False
55.154	0.0	1Suff w/o Lat.	12	55154	original	1.0	0.0	False
56.046	0.0	0Suff NW	4	56046	imoat	0.0	1.0	False
57.121	0.0	1Suff w/o Lat.	12	57121	healthy	1.0	0.0	False
58.28	0.0	1Suff PseudoStemNW	14	58280	aisless	0.0	1.0	False
59.289	0.0	2Suff w/o Lat.	22	59289	moisturize	1.0	0.0	False
60.339	0.0	0Suff NW	4	60339	wate	0.0	1.0	False
61.381	0.0	2Suff RealStemNW	25	61381	fatantly	0.0	1.0	False
62.506	0.0	2Suff PseudoStemNW	24	62506	artlitackural	0.0	1.0	False
63.548	0.0	1Suff PseudoStemNW	14	63548	eetward	0.0	1.0	False
64.549	0.0	1Suff PseudoStemNW	14	64549	subplencial	0.0	1.0	False
65.832	0.0	2Suff RealStemNW	25	65832	notifilessly	0.0		False
68.225	0.0	1Suff RealStemNW	15	68225	idealate	0.0	1.0	False
69.533	0.0	0Suff NW	4	69533	mevion	0.0	1.0	False
70.584	0.0	1Suff PseudoStemNW	14	70584	mosimize	0.0	1.0	False
71.734	0.0	0Suff w/o Lat.	2	71734	function	1.0	0.0	False
73.501	0.0	2Suff PseudoStemNW	24	73501	uspasionally	0.0	1.0	False
74.635	0.0	1Suff w/o Lat.	12	74635	sterilize	1.0	0.0	False
75.819	0.0	2Suff RealStemNW	25	75819	forgetiveness	0.0	1.0	False
78.219	0.0	1Suff PseudoStemNW	14	78219	goulty	0.0	1.0	False
79.136	0.0	0Suff w/o Lat.	2	79136	magnet	1.0	0.0	False
80.562	0.0	1Suff w/o Lat.	12	80562	realist	1.0	0.0	False
81.654	0.0	0Suff w/ Lat.	1	81654	project	1.0	0.0	False
82.713	0.0	2Suff RealStemNW	25	82713	transitality	0.0	1.0	False
83.98	0.0	2Suff w/o Lat.	22	83980	fatalism	1.0	0.0	False
85.122	0.0	1Suff w/o Lat.	12	85122	editor	1.0	0.0	False
86.23	0.0	2Suff Composite	23	86230	organization	1.0	0.0	False
87.431	0.0	1Suff PseudoStemNW	14	87431	essoilial	0.0	1.0	False
88.556	0.0	1Suff w/o Lat.	12	88556	difference	1.0	0.0	False
89.706	0.0	2Suff PseudoStemNW	24	89706	degorative	0.0	1.0	False
91.457	0.0	2Suff RealStemNW	25	91457	leadantate	0.0	1.0	False
92.966	0.0	2Suff PseudoStemNW	24	92966	perburbation	0.0	1.0	False
94.458	0.0	2Suff w/o Lat.	22	94458	governmental	1.0	0.0	False
96.417	0.0	2Suff w/o Lat.	22	96417	thankfulness	1.0	0.0	False
97.575	0.0	1Suff PseudoStemNW	14	97575	meabonal	0.0	1.0	False
98.684	0.0	2Suff w/o Lat.	22	98684	polarize	1.0	0.0	False
99.743	0.0	2Suff w/o Lat.	22	99743	developmental	1.0	0.0	False
100.793	0.0	1Suff w/o Lat.	12	100793	racial	1.0	0.0	False
101.977	0.0	1Suff w/o Lat.	12	101977	orderly	1.0	0.0	False
103.06	0.0	2Suff Composite	23	103060	characteristic	1.0	0.0	False
104.319	0.0	1Suff PseudoStemNW	14	104319	stumial	0.0	1.0	False
105.478	0.0	1Suff RealStemNW	15	105478	assassinion	0.0	0.0	True
107.262	0.0	2Suff w/o Lat.	22	107262	guardianship	1.0	0.0	False
108.804	0.0	2Suff PseudoStemNW	24	108804	chirdishly	0.0	1.0	False
110.154	0.0	2Suff RealStemNW	25	110154	familierage	0.0	1.0	False
111.296	0.0	1Suff PseudoStemNW	14	111296	deabonable	0.0	1.0	False
112.405	0.0	0Suff NW	4	112405	ewsib	0.0	1.0	False
113.322	0.0	0Suff NW	4	113322	finiles	0.0	1.0	False
114.306	0.0	2Suff w/o Lat.	22	114306	originator	1.0	0.0	False
115.623	0.0	1Suff RealStemNW	15	115623	educatate	0.0	1.0	False
117.757	0.0	2Suff w/o Lat.	22	117757	sleepily	1.0	0.0	False
118.857	0.0	2Suff w/o Lat.	22	118857	gloriously	1.0	0.0	False
119.899	0.0	2Suff PseudoStemNW	24	119899	squasification	0.0	1.0	False
121.349	0.0	0Suff w/ Lat.	1	121349	extend	1.0	0.0	False
122.375	0.0	2Suff RealStemNW	25	122375	ritualional	0.0	1.0	False
123.617	0.0	2Suff PseudoStemNW	24	123617	hodelessly	0.0	1.0	False
125.626	0.0	1Suff RealStemNW	15	125626	intensful	0.0	1.0	False
126.934	0.0	1Suff RealStemNW	15	126934	marketless	0.0	0.0	True
128.235	0.0	2Suff RealStemNW	25	128235	hopeively	0.0	1.0	False
129.419	0.0	0Suff w/o Lat.	2	129419	protect	1.0	0.0	False
130.511	0.0	2Suff w/o Lat.	22	130511	outwardly	1.0	0.0	False
131.761	0.0	2Suff PseudoStemNW	24	131761	cunerogially	0.0	1.0	False
132.878	0.0	0Suff NW	4	132878	appigent	0.0	1.0	False
134.078	0.0	2Suff w/o Lat.	22	134078	ethically	1.0	0.0	False
135.129	0.0	2Suff RealStemNW	25	135129	isolatmental	0.0	1.0	False
136.112	0.0	1Suff PseudoStemNW	14	136112	fleedy	0.0	1.0	False
137.213	0.0	1Suff PseudoStemNW	14	137213	devadive	0.0	1.0	False
138.146	0.0	2Suff w/o Lat.	22	138146	isolationism	1.0	1.0	True
139.213	0.0	2Suff w/ Lat.	21	139213	extensively	1.0	0.0	False
140.43	0.0	1Suff w/o Lat.	12	140430	education	1.0	0.0	False
141.464	0.0	0Suff NW	4	141464	worch	0.0	1.0	False
142.539	0.0	2Suff RealStemNW	25	142539	accidentical	0.0		False
144.94	0.0	1Suff w/o Lat.	12	144940	ceremonial	1.0	0.0	False
146.541	0.0	0Suff w/o Lat.	2	146541	myth	1.0	0.0	False
147.674	0.0	1Suff RealStemNW	15	147674	heroal	0.0	1.0	False
148.725	0.0	1Suff w/o Lat.	12	148725	adaptable	1.0	0.0	False
149.875	0.0	2Suff w/o Lat.	22	149875	wakefulness	1.0	0.0	False
150.967	0.0	0Suff NW	4	150967	affall	0.0	1.0	False
151.967	0.0	0Suff w/o Lat.	2	151967	delight	1.0	0.0	False
153.009	0.0	2Suff w/o Lat.	22	153009	soulfully	1.0	0.0	False
154.085	0.0	0Suff w/o Lat.	2	154085	globe	1.0	0.0	False
155.118	0.0	1Suff PseudoStemNW	14	155118	headthy	0.0	1.0	False
156.268	0.0	2Suff PseudoStemNW	24	156268	prodfessively	0.0	1.0	False
157.452	0.0	0Suff w/o Lat.	2	157452	reason	1.0	0.0	False
158.519	0.0	2Suff w/o Lat.	22	158519	notably	1.0	0.0	False
160.011	0.0	1Suff w/o Lat.	12	160011	marginal	1.0	0.0	False
161.412	0.0	0Suff NW	4	161412	etil	0.0	1.0	False
162.504	0.0	2Suff w/o Lat.	22	162504	originally	1.0	0.0	False
163.679	0.0	2Suff w/o Lat.	22	163679	statistically	1.0	0.0	False
164.713	0.0	2Suff w/ Lat.	21	164713	impressionist	1.0	0.0	False
166.022	0.0	2Suff PseudoStemNW	24	166022	ewsibally	0.0	1.0	False
167.314	0.0	1Suff w/o Lat.	12	167314	occasional	1.0	0.0	False
168.447	0.0	2Suff w/o Lat.	22	168447	thoughtlessly	1.0	0.0	False
169.739	0.0	2Suff RealStemNW	25	169739	relateness	0.0	1.0	False
170.815	0.0	0Suff NW	4	170815	artlitack	0.0	1.0	False
171.823	0.0	2Suff PseudoStemNW	24	171823	tutiously	0.0	1.0	False
173.007	0.0	2Suff w/o Lat.	22	173007	frightfully	1.0	0.0	False
174.199	0.0	1Suff PseudoStemNW	14	174199	glibal	0.0	1.0	False
175.216	0.0	2Suff w/o Lat.	22	175216	friendliness	1.0	0.0	False
176.291	0.0	2Suff w/o Lat.	22	176291	basically	1.0	0.0	False
177.408	0.0	2Suff PseudoStemNW	24	177408	avoldability	0.0	1.0	False
178.467	0.0	0Suff w/o Lat.	2	178467	child	1.0	0.0	False
179.467	0.0	2Suff RealStemNW	25	179467	orderionist	0.0	1.0	False
180.568	0.0	2Suff PseudoStemNW	24	180568	desalkation	0.0	1.0	False
206.142	0.0	1Suff RealStemNW	15	206142	wakeive	0.0	1.0	False
207.151	0.0	0Suff w/o Lat.	2	207151	hope	1.0	0.0	False
207.976	0.0	2Suff PseudoStemNW	24	207976	stitilization	0.0	1.0	False
209.143	0.0	2Suff PseudoStemNW	24	209143	devesugmental	0.0	1.0	False
210.068	0.0	1Suff w/o Lat.	12	210068	materialist	1.0	0.0	False
211.461	0.0	1Suff w/o Lat.	12	211461	manly	1.0	0.0	False
212.628	0.0	0Suff w/o Lat.	2	212628	develop	1.0	0.0	False
213.628	0.0	0Suff NW	4	213628	attossin	0.0	1.0	False
214.561	0.0	1Suff PseudoStemNW	14	214561	halkless	0.0	1.0	False
215.628	0.0	2Suff RealStemNW	25	215628	fatical	0.0	1.0	False
216.645	0.0	2Suff w/o Lat.	22	216645	awfulness	1.0	0.0	False
217.679	0.0	1Suff w/ Lat.	11	217679	available	1.0	0.0	False
218.729	0.0	0Suff NW	4	218729	esdybit	0.0	1.0	False
219.655	0.0	2Suff w/o Lat.	22	219655	leaderless	1.0	0.0	False
220.822	0.0	0Suff NW	4	220822	rerard	0.0	1.0	False
221.847	0.0	0Suff NW	4	221847	concuch	0.0	1.0	False
222.897	0.0	2Suff w/o Lat.	22	222897	periodical	1.0	0.0	False
224.006	0.0	1Suff w/o Lat.	12	224006	childish	1.0	0.0	False
225.156	0.0	1Suff PseudoStemNW	14	225156	distawksive	0.0	1.0	False
226.198	0.0	2Suff w/o Lat.	22	226198	notification	1.0	0.0	False
227.24	0.0	2Suff w/ Lat.	21	227240	persistently	1.0	0.0	False
228.407	0.0	2Suff w/o Lat.	22	228407	editorship	1.0	1.0	True
230.041	0.0	0Suff w/ Lat.	1	230041	instruct	1.0	0.0	False
231.092	0.0	1Suff w/o Lat.	12	231092	polar	1.0	0.0	False
232.184	0.0	1Suff w/o Lat.	12	232184	definite	1.0	0.0	False
233.217	0.0	1Suff PseudoStemNW	14	233217	degorate	0.0	1.0	False
234.318	0.0	1Suff PseudoStemNW	14	234318	worchless	0.0	1.0	False
235.259	0.0	2Suff PseudoStemNW	24	235259	stumialize	0.0	1.0	False
236.201	0.0	0Suff w/o Lat.	2	236201	decor	1.0	0.0	False
237.252	0.0	2Suff RealStemNW	25	237252	fasticly	0.0	1.0	False
238.26	0.0	0Suff NW	4	238260	steadth	0.0	1.0	False
240.244	0.0	2Suff PseudoStemNW	24	240244	rerativity	0.0	1.0	False
241.411	0.0	2Suff PseudoStemNW	24	241411	coppentator	0.0	1.0	False
242.62	0.0	1Suff w/o Lat.	12	242620	intensive	1.0	0.0	False
243.529	0.0	2Suff RealStemNW	25	243529	considerishly	0.0	1.0	False
244.696	0.0	0Suff NW	4	244696	coul	0.0	1.0	False
245.863	0.0	2Suff w/ Lat.	21	245863	progressively	1.0	0.0	False
246.996	0.0	2Suff PseudoStemNW	24	246996	banically	0.0	1.0	False
248.088	0.0	0Suff w/o Lat.	2	248088	dead	1.0	0.0	False
249.147	0.0	2Suff Composite	23	249147	sterilization	1.0	0.0	False
250.389	0.0	2Suff RealStemNW	25	250389	guardifiance	0.0	1.0	False
251.54	0.0	1Suff RealStemNW	15	251540	peaceive	0.0	1.0	False
252.723	0.0	1Suff w/o Lat.	12	252723	essential	1.0	0.0	False
253.974	0.0	2Suff w/o Lat.	22	253974	mobilization	1.0	0.0	False
255.032	0.0	1Suff PseudoStemNW	14	255032	prodfessive	0.0	1.0	False
256.058	0.0	1Suff RealStemNW	15	256058	deadic	0.0	1.0	False
257.066	0.0	2Suff w/o Lat.	22	257066	directional	1.0	0.0	False
258.583	0.0	2Suff PseudoStemNW	24	258583	onnensively	0.0	1.0	False
259.709	0.0	1Suff PseudoStemNW	14	259709	sorken	0.0	1.0	False
260.809	0.0	2Suff Composite	23	260809	stratification	1.0	0.0	False
262.301	0.0	0Suff w/o Lat.	2	262301	triumph	1.0	0.0	False
263.376	0.0	2Suff PseudoStemNW	24	263376	pasklessly	0.0	1.0	False
264.552	0.0	1Suff w/o Lat.	12	264552	mobilize	1.0	0.0	False
265.719	0.0	2Suff PseudoStemNW	24	265719	chierfully	0.0	1.0	False
267.253	0.0	2Suff w/o Lat.	22	267253	editorial	1.0	0.0	False
268.636	0.0	1Suff PseudoStemNW	14	268636	reration	0.0	1.0	False
269.745	0.0	0Suff w/o Lat.	2	269745	fate	1.0	0.0	False
270.779	0.0	1Suff w/ Lat.	11	270779	affirmative	1.0	0.0	False
272.354	0.0	2Suff w/o Lat.	22	272354	designation	1.0	0.0	False
273.605	0.0	2Suff w/o Lat.	22	273605	musically	1.0	0.0	False
274.838	0.0	0Suff w/o Lat.	2	274838	speed	1.0	0.0	False
276.689	0.0	1Suff w/o Lat.	12	276689	friendly	1.0	0.0	False
277.714	0.0	0Suff w/ Lat.	1	277714	predict	1.0	0.0	False
278.69	0.0	1Suff w/o Lat.	12	278690	forgetful	1.0	0.0	False
279.598	0.0	1Suff PseudoStemNW	14	279598	restittable	0.0	1.0	False
280.557	0.0	0Suff NW	4	280557	corzess	0.0	1.0	False
281.59	0.0	1Suff PseudoStemNW	14	281590	uteless	0.0	1.0	False
283.224	0.0	2Suff PseudoStemNW	24	283224	pasnetically	0.0	1.0	False
284.241	0.0	0Suff NW	4	284241	hode	0.0	1.0	False
285.217	0.0	0Suff NW	4	285217	paft	0.0	1.0	False
286.175	0.0	1Suff PseudoStemNW	14	286175	dehonite	0.0	1.0	False
287.201	0.0	2Suff w/o Lat.	22	287201	cheerfulness	1.0	0.0	False
288.518	0.0	0Suff w/o Lat.	2	288518	fury	1.0	0.0	False
289.543	0.0	0Suff NW	4	289543	goult	0.0	1.0	False
290.718	0.0	2Suff w/o Lat.	22	290718	stealthily	1.0	0.0	False
292.21	0.0	2Suff PseudoStemNW	24	292210	affallation	0.0	1.0	False
293.469	0.0	2Suff w/o Lat.	22	293469	leadership	1.0	0.0	False
294.494	0.0	1Suff PseudoStemNW	14	294494	mowthure	0.0	1.0	False
295.77	0.0	1Suff w/o Lat.	12	295770	soulful	1.0	0.0	False
297.362	0.0	1Suff RealStemNW	15	297362	exhibitate	0.0	1.0	False
298.787	0.0	0Suff w/o Lat.	2	298787	nerve	1.0	0.0	False
299.846	0.0	2Suff PseudoStemNW	24	299846	peadership	0.0	1.0	False
300.896	0.0	2Suff w/o Lat.	22	300896	isolationist	1.0	1.0	True
302.714	0.0	1Suff w/o Lat.	12	302714	heroic	1.0	0.0	False
303.731	0.0	2Suff RealStemNW	25	303731	substanceical	0.0	1.0	False
304.773	0.0	0Suff w/o Lat.	2	304773	forget	1.0	0.0	False
305.69	0.0	1Suff RealStemNW	15	305690	furance	0.0	1.0	False
306.69	0.0	0Suff w/o Lat.	2	306690	accident	1.0	0.0	False
307.615	0.0	1Suff w/o Lat.	12	307615	faithful	1.0	0.0	False
308.699	0.0	1Suff w/o Lat.	12	308699	exhaustive	1.0	0.0	False
309.766	0.0	2Suff RealStemNW	25	309766	idealional	0.0	1.0	False
310.983	0.0	1Suff PseudoStemNW	14	310983	affaidative	0.0	1.0	False
312.033	0.0	2Suff w/o Lat.	22	312033	profitably	1.0	0.0	False
313.359	0.0	1Suff PseudoStemNW	14	313359	prebitable	0.0	1.0	False
314.517	0.0	0Suff w/o Lat.	2	314517	success	1.0	0.0	False
315.434	0.0	1Suff PseudoStemNW	14	315434	ewsibal	0.0	1.0	False
316.368	0.0	0Suff NW	4	316368	eshaums	0.0	1.0	False
317.268	0.0	0Suff w/o Lat.	2	317268	drama	1.0	0.0	False
318.277	0.0	0Suff NW	4	318277	fars	0.0	1.0	False
319.31	0.0	0Suff w/o Lat.	2	319310	pain	1.0	0.0	False
320.252	0.0	2Suff PseudoStemNW	24	320252	eetwardly	0.0	1.0	False
321.186	0.0	2Suff w/o Lat.	22	321186	competitively	1.0	0.0	False
322.47	0.0	2Suff w/o Lat.	22	322470	definitive	1.0	0.0	False
323.495	0.0	2Suff RealStemNW	25	323495	categorally	0.0	1.0	False
325.254	0.0	1Suff w/o Lat.	12	325254	partial	1.0	0.0	False
326.354	0.0	1Suff PseudoStemNW	14	326354	urmerly	0.0	1.0	False
327.28	0.0	1Suff w/o Lat.	12	327280	ethical	1.0	0.0	False
328.263	0.0	2Suff RealStemNW	25	328263	educatality	0.0	1.0	False
329.705	0.0	0Suff w/o Lat.	2	329705	design	1.0	0.0	False
330.881	0.0	1Suff PseudoStemNW	14	330881	awdition	0.0	1.0	False
331.848	0.0	1Suff PseudoStemNW	14	331848	hythical	0.0	1.0	False
333.315	0.0	2Suff w/o Lat.	22	333315	essentially	1.0	0.0	False
334.773	0.0	1Suff w/o Lat.	12	334773	dramatize	1.0	0.0	False
336.099	0.0	2Suff w/o Lat.	22	336099	fastener	1.0	0.0	False
337.699	0.0	1Suff PseudoStemNW	14	337699	paskful	0.0	1.0	False
340.058	0.0	0Suff w/o Lat.	2	340058	ceremony	1.0	0.0	False
341.225	0.0	1Suff PseudoStemNW	14	341225	imoatist	0.0	1.0	False
342.376	0.0	0Suff w/o Lat.	2	342376	family	1.0	0.0	False
343.485	0.0	0Suff w/o Lat.	2	343485	music	1.0	0.0	False
379.229	0.0	0Suff w/o Lat.	2	379229	soft	1.0	0.0	False
380.171	0.0	1Suff RealStemNW	15	380171	directar	0.0	1.0	False
381.129	0.0	1Suff w/o Lat.	12	381129	easy	1.0	0.0	False
381.93	0.0	1Suff w/o Lat.	12	381930	guardian	1.0	0.0	False
382.83	0.0	2Suff w/o Lat.	22	382830	gleefully	1.0	0.0	False
383.822	0.0	0Suff NW	4	383822	fale	0.0	1.0	False
384.939	0.0	1Suff w/o Lat.	12	384939	awful	1.0	0.0	False
385.948	0.0	1Suff PseudoStemNW	14	385948	orifadal	0.0	1.0	False
386.873	0.0	0Suff w/o Lat.	2	386873	soul	1.0	0.0	False
387.84	0.0	1Suff w/ Lat.	11	387840	extensive	1.0	0.0	False
388.982	0.0	1Suff PseudoStemNW	14	388982	affallion	0.0	1.0	False
389.999	0.0	0Suff NW	4	389999	snight	0.0	1.0	False
391.066	0.0	2Suff w/o Lat.	22	391066	furiously	1.0	0.0	False
392.45	0.0	1Suff PseudoStemNW	14	392450	sushective	0.0	1.0	False
393.883	0.0	2Suff w/o Lat.	22	393883	logically	1.0	0.0	False
394.95	0.0	2Suff w/o Lat.	22	394950	dramatically	1.0	0.0	False
395.842	0.0	0Suff NW	4	395842	distawks	0.0	1.0	False
397.068	0.0	0Suff NW	4	397068	sest	0.0	1.0	False
398.051	0.0	2Suff RealStemNW	25	398051	revitalilessly	0.0	1.0	False
398.952	0.0	1Suff w/o Lat.	12	398952	sleepy	1.0	0.0	False
399.869	0.0	2Suff RealStemNW	25	399869	globical	0.0	1.0	False
400.819	0.0	2Suff PseudoStemNW	24	400819	falumfilly	0.0	1.0	False
401.702	0.0	2Suff RealStemNW	25	401702	satirally	0.0	1.0	False
402.694	0.0	1Suff w/o Lat.	12	402694	reasonable	1.0	0.0	False
403.795	0.0	2Suff w/o Lat.	22	403795	exhaustively	1.0	0.0	False
405.395	0.0	1Suff w/o Lat.	12	405395	worthless	1.0	0.0	False
406.421	0.0	0Suff NW	4	406421	provame	0.0	1.0	False
407.463	0.0	1Suff w/o Lat.	12	407463	musical	1.0	0.0	False
408.555	0.0	1Suff w/o Lat.	12	408555	designate	1.0	0.0	False
409.988	0.0	2Suff Composite	23	409988	autistic	1.0	0.0	False
411.105	0.0	0Suff w/ Lat.	1	411105	exhibit	1.0	0.0	False
412.114	0.0	1Suff w/o Lat.	12	412114	architecture	1.0	0.0	False
413.123	0.0	2Suff RealStemNW	25	413123	harmiously	0.0	0.0	True
414.348	0.0	1Suff w/o Lat.	12	414348	fatal	1.0	0.0	False
415.298	0.0	2Suff PseudoStemNW	24	415298	orifadator	0.0	1.0	False
416.39	0.0	1Suff RealStemNW	15	416390	leador	0.0	1.0	False
417.466	0.0	2Suff w/o Lat.	22	417466	believably	1.0	0.0	False
418.799	0.0	2Suff Composite	23	418799	vitalization	1.0	0.0	False
420.258	0.0	2Suff w/o Lat.	22	420258	familiarity	1.0	0.0	False
421.409	0.0	1Suff w/o Lat.	12	421409	decisive	1.0	0.0	False
422.392	0.0	1Suff PseudoStemNW	14	422392	rhylphic	0.0	1.0	False
423.359	0.0	0Suff NW	4	423359	eserete	0.0	1.0	False
424.384	0.0	0Suff NW	4	424384	analk	0.0	1.0	False
425.31	0.0	2Suff RealStemNW	25	425310	friendionist	0.0	1.0	False
426.427	0.0	1Suff w/o Lat.	12	426427	deadly	1.0	0.0	False
428.486	0.0	0Suff w/o Lat.	2	428486	distinct	1.0	0.0	False
429.461	0.0	2Suff w/o Lat.	22	429461	orderliness	1.0	0.0	False
431.053	0.0	2Suff Composite	23	431053	deterministic	1.0	0.0	False
433.07	0.0	1Suff PseudoStemNW	14	433070	betiecable	0.0	1.0	False
434.554	0.0	1Suff w/ Lat.	11	434554	progressive	1.0	0.0	False
435.605	0.0	1Suff RealStemNW	15	435605	relatful	0.0	1.0	False
436.622	0.0	0Suff NW	4	436622	reut	0.0	1.0	False
437.613	0.0	1Suff w/o Lat.	12	437613	protection	1.0	0.0	False
438.797	0.0	2Suff w/o Lat.	22	438797	uselessness	1.0	0.0	False
440.623	0.0	1Suff RealStemNW	15	440623	competitful	0.0	1.0	False
442.073	0.0	1Suff w/ Lat.	11	442073	instruction	1.0		False
444.457	0.0	1Suff w/o Lat.	12	444457	idealize	1.0	0.0	False
445.466	0.0	2Suff w/o Lat.	22	445466	differential	1.0	0.0	False
447.1	0.0	0Suff NW	4	447100	sork	0.0	1.0	False
448.067	0.0	0Suff NW	4	448067	perburve	0.0	1.0	False
449.017	0.0	0Suff NW	4	449017	ais	0.0	1.0	False
449.876	0.0	1Suff w/o Lat.	12	449876	director	1.0	0.0	False
451.618	0.0	0Suff NW	4	451618	devesug	0.0	1.0	False
452.601	0.0	2Suff PseudoStemNW	24	452601	allidation	0.0	1.0	False
453.535	0.0	2Suff w/o Lat.	22	453535	transitional	1.0	0.0	False
454.635	0.0	0Suff w/o Lat.	2	454635	believe	1.0	0.0	False
455.752	0.0	0Suff NW	4	455752	pote	0.0	1.0	False
456.836	0.0	2Suff Composite	23	456836	simplification	1.0	0.0	False
458.136	0.0	1Suff w/o Lat.	12	458136	financial	1.0	0.0	False
459.829	0.0	2Suff w/o Lat.	22	459829	originality	1.0	0.0	False
460.829	0.0	1Suff w/o Lat.	12	460829	nervous	1.0	0.0	False
461.771	0.0	2Suff PseudoStemNW	24	461771	orifadality	0.0	1.0	False
462.88	0.0	2Suff w/o Lat.	22	462880	seasonally	1.0	0.0	False
464.322	0.0	1Suff PseudoStemNW	14	464322	fralatic	0.0	1.0	False
465.589	0.0	2Suff w/o Lat.	22	465589	childishly	1.0	0.0	False
467.006	0.0	0Suff NW	4	467006	dehone	0.0	1.0	False
467.948	0.0	1Suff w/o Lat.	12	467948	harmless	1.0	0.0	False
468.873	0.0	0Suff NW	4	468873	pavediad	0.0	1.0	False
470.023	0.0	2Suff w/o Lat.	22	470023	distinctively	1.0	0.0	False
471.241	0.0	1Suff RealStemNW	15	471241	considerion	0.0		False
473.641	0.0	1Suff RealStemNW	15	473641	exhaustful	0.0	1.0	False
475.075	0.0	0Suff w/o Lat.	2	475075	edit	1.0	0.0	False
476.15	0.0	1Suff RealStemNW	15	476150	marginic	0.0	1.0	False
477.601	0.0	0Suff w/o Lat.	2	477601	ethic	1.0	1.0	True
479.485	0.0	2Suff w/o Lat.	22	479485	ceremonially	1.0		False
481.894	0.0	2Suff PseudoStemNW	24	481894	chirdishness	0.0	1.0	False
483.044	0.0	2Suff PseudoStemNW	24	483044	denboderation	0.0	1.0	False
484.011	0.0	0Suff NW	4	484011	moel	0.0	1.0	False
485.028	0.0	0Suff w/o Lat.	2	485028	hero	1.0	0.0	False
486.128	0.0	2Suff PseudoStemNW	24	486128	otification	0.0	1.0	False
487.129	0.0	2Suff RealStemNW	25	487129	marginical	0.0	1.0	False
488.296	0.0	1Suff w/o Lat.	12	488296	substantial	1.0	0.0	False
489.338	0.0	2Suff PseudoStemNW	24	489338	diructorship	0.0	1.0	False
490.555	0.0	2Suff PseudoStemNW	24	490555	detismsfully	0.0	1.0	False
491.58	0.0	2Suff Composite	23	491580	pasteurization	1.0	0.0	False
493.047	0.0	1Suff w/o Lat.	12	493047	fasten	1.0	0.0	False
494.189	0.0	1Suff w/o Lat.	12	494189	notable	1.0	0.0	False
495.131	0.0	0Suff NW	4	495131	han	0.0	1.0	False
496.29	0.0	1Suff w/o Lat.	12	496290	ritualist	1.0	0.0	False
497.482	0.0	2Suff RealStemNW	25	497482	persuasfully	0.0	1.0	False
498.874	0.0	2Suff RealStemNW	25	498874	moistantly	0.0	1.0	False
500.008	0.0	1Suff RealStemNW	15	500008	architectian	0.0	1.0	False
501.35	0.0	0Suff NW	4	501350	figic	0.0	1.0	False
502.392	0.0	2Suff Composite	23	502392	allegation	1.0	0.0	False
503.442	0.0	1Suff PseudoStemNW	14	503442	orifadate	0.0	1.0	False
504.776	0.0	2Suff PseudoStemNW	24	504776	thackener	0.0	1.0	False
505.776	0.0	1Suff w/o Lat.	12	505776	validate	1.0	0.0	False
506.885	0.0	1Suff RealStemNW	15	506885	restable	0.0	0.0	True
508.36	0.0	2Suff w/o Lat.	22	508360	protectionist	1.0	0.0	False
509.619	0.0	2Suff PseudoStemNW	24	509619	sorkener	0.0	1.0	False
510.803	0.0	1Suff PseudoStemNW	14	510803	priueurant	0.0	1.0	False
511.795	0.0	2Suff w/o Lat.	22	511795	restlessness	1.0	0.0	False
512.828	0.0	0Suff NW	4	512828	nole	0.0	1.0	False
513.887	0.0	0Suff w/o Lat.	2	513887	fast	1.0	0.0	False
514.971	0.0	2Suff PseudoStemNW	24	514971	potarity	0.0	1.0	False
516.046	0.0	2Suff w/o Lat.	22	516046	hopefully	1.0	0.0	False
517.138	0.0	2Suff PseudoStemNW	24	517138	ictressionism	0.0	1.0	False
518.272	0.0	1Suff PseudoStemNW	14	518272	uspasional	0.0	1.0	False
519.439	0.0	2Suff PseudoStemNW	24	519439	restittably	0.0	1.0	False
545.972	0.0	0Suff NW	4	545972	hyth	0.0	1.0	False
547.064	0.0	0Suff NW	4	547064	tipe	0.0	1.0	False
548.098	0.0	2Suff RealStemNW	25	548098	realional	0.0	1.0	False
550.307	0.0	1Suff w/o Lat.	12	550307	painful	1.0	0.0	False
551.349	0.0	1Suff RealStemNW	15	551349	financeic	0.0	1.0	False
552.374	0.0	2Suff RealStemNW	25	552374	editerize	0.0	1.0	False
553.416	0.0	2Suff PseudoStemNW	24	553416	instrovtional	0.0	1.0	False
554.341	0.0	2Suff w/o Lat.	22	554341	magnetically	1.0	0.0	False
555.466	0.0	1Suff RealStemNW	15	555466	impressate	0.0	1.0	False
556.467	0.0	1Suff w/o Lat.	12	556467	furious	1.0	0.0	False
558.117	0.0	0Suff w/o Lat.	2	558117	substance	1.0	0.0	False
559.134	0.0	2Suff Composite	23	559134	mechanistic	1.0	1.0	True
560.318	0.0	1Suff RealStemNW	15	560318	availless	0.0	1.0	False
561.143	0.0	2Suff PseudoStemNW	24	561143	steadthily	0.0	1.0	False
562.06	0.0	1Suff w/o Lat.	12	562060	transition	1.0	0.0	False
563.727	0.0	2Suff w/o Lat.	22	563727	childishness	1.0	0.0	False
565.503	0.0	2Suff w/o Lat.	22	565503	differentiate	1.0	0.0	False
566.595	0.0	0Suff w/o Lat.	2	566595	base	1.0	0.0	False
567.512	0.0	2Suff w/o Lat.	22	567512	definitely	1.0	0.0	False
568.487	0.0	1Suff w/o Lat.	12	568487	considerable	1.0	0.0	False
569.446	0.0	1Suff PseudoStemNW	14	569446	thashful	0.0	1.0	False
570.438	0.0	0Suff NW	4	570438	stitile	0.0	1.0	False
571.463	0.0	0Suff w/o Lat.	2	571463	consider	1.0	0.0	False
572.447	0.0	2Suff RealStemNW	25	572447	dramatilessly	0.0	1.0	False
573.539	0.0	1Suff RealStemNW	15	573539	poetal	0.0	1.0	False
574.564	0.0	1Suff w/o Lat.	12	574564	seasonal	1.0	0.0	False
575.664	0.0	1Suff RealStemNW	15	575664	mistaker	0.0	1.0	False
577.34	0.0	2Suff PseudoStemNW	24	577340	falality	0.0	1.0	False
578.39	0.0	0Suff NW	4	578390	avold	0.0	1.0	False
579.574	0.0	0Suff NW	4	579574	wroty	0.0	1.0	False
580.457	0.0	2Suff PseudoStemNW	24	580457	hodelessness	0.0	1.0	False
581.575	0.0	2Suff w/o Lat.	22	581575	idealistic	1.0	0.0	False
582.683	0.0	0Suff NW	4	582683	headth	0.0	1.0	False
583.65	0.0	2Suff w/o Lat.	22	583650	provocatively	1.0	1.0	True
585.817	0.0	2Suff w/o Lat.	22	585817	successfully	1.0	0.0	False
587.868	0.0	1Suff RealStemNW	15	587868	painable	0.0	1.0	False
589.444	0.0	2Suff PseudoStemNW	24	589444	rhylphically	0.0	1.0	False
590.377	0.0	1Suff w/o Lat.	12	590377	trivial	1.0	0.0	False
591.761	0.0	0Suff NW	4	591761	lenction	0.0	1.0	False
592.795	0.0	0Suff w/o Lat.	2	592795	friend	1.0	0.0	False
594.345	0.0	2Suff RealStemNW	25	594345	peaceively	0.0	1.0	False
595.454	0.0	2Suff w/o Lat.	22	595454	harmlessly	1.0	0.0	False
596.487	0.0	0Suff NW	4	596487	thack	0.0	1.0	False
597.746	0.0	0Suff NW	4	597746	subplence	0.0	1.0	False
598.805	0.0	0Suff w/o Lat.	2	598805	race	1.0	0.0	False
599.805	0.0	2Suff w/o Lat.	22	599805	decisively	1.0	0.0	False
600.989	0.0	0Suff w/o Lat.	2	600989	sterile	1.0	0.0	False
602.114	0.0	2Suff w/ Lat.	21	602114	exhibitionism	1.0	0.0	False
603.298	0.0	2Suff w/o Lat.	22	603298	worthlessness	1.0	0.0	False
604.673	0.0	2Suff w/ Lat.	21	604673	affirmatively	1.0	0.0	False
606.115	0.0	2Suff PseudoStemNW	24	606115	gramiously	0.0	1.0	False
607.324	0.0	1Suff RealStemNW	15	607324	soulive	0.0	1.0	False
608.449	0.0	0Suff NW	4	608449	concoler	0.0	1.0	False
609.641	0.0	0Suff NW	4	609641	stoteld	0.0	1.0	False
610.717	0.0	1Suff w/o Lat.	12	610717	considerate	1.0	0.0	False
611.775	0.0	0Suff w/o Lat.	2	611775	note	1.0	0.0	False
612.917	0.0	2Suff PseudoStemNW	24	612917	snoughtlessly	0.0	1.0	False
614.268	0.0	1Suff PseudoStemNW	14	614268	paftial	0.0	1.0	False
615.327	0.0	0Suff w/o Lat.	2	615327	intense	1.0	0.0	False
617.527	0.0	2Suff RealStemNW	25	617527	raceical	0.0	1.0	False
618.578	0.0	0Suff w/o Lat.	2	618578	decide	1.0	0.0	False
619.67	0.0	1Suff RealStemNW	15	619670	confessate	0.0	1.0	False
620.845	0.0	0Suff w/o Lat.	2	620845	relate	1.0		False
623.254	0.0	1Suff PseudoStemNW	14	623254	coppentate	0.0	1.0	False
624.438	0.0	0Suff NW	4	624438	isotent	0.0	1.0	False
625.371	0.0	1Suff PseudoStemNW	14	625371	chierful	0.0	1.0	False
626.338	0.0	1Suff PseudoStemNW	14	626338	prowertion	0.0	1.0	False
627.247	0.0	0Suff w/o Lat.	2	627247	glee	1.0	0.0	False
628.181	0.0	2Suff w/o Lat.	22	628181	easily	1.0	0.0	False
629.114	0.0	0Suff w/o Lat.	2	629114	man	1.0	0.0	False
630.023	0.0	2Suff RealStemNW	25	630023	subjectfully	0.0	0.0	True
630.981	0.0	0Suff NW	4	630981	meabon	0.0	1.0	False
632.14	0.0	1Suff PseudoStemNW	14	632140	analkable	0.0	1.0	False
633.09	0.0	0Suff NW	4	633090	rhylph	0.0	1.0	False
633.999	0.0	2Suff w/o Lat.	22	633999	hopelessly	1.0	1.0	True
635.058	0.0	2Suff w/o Lat.	22	635058	considerately	1.0	0.0	False
636.308	0.0	1Suff RealStemNW	15	636308	designion	0.0	1.0	False
637.308	0.0	2Suff PseudoStemNW	24	637308	mosimization	0.0	1.0	False
638.342	0.0	0Suff w/ Lat.	1	638342	affect	1.0	0.0	False
639.284	0.0	2Suff PseudoStemNW	24	639284	inshemmation	0.0	1.0	False
640.209	0.0	0Suff w/o Lat.	2	640209	thank	1.0	0.0	False
641.285	0.0	2Suff w/o Lat.	22	641285	polarity	1.0	0.0	False
642.327	0.0	2Suff PseudoStemNW	24	642327	paftially	0.0	1.0	False
643.302	0.0	2Suff RealStemNW	25	643302	marketfulness	0.0	0.0	True
644.644	0.0	2Suff PseudoStemNW	24	644644	vefation	0.0	1.0	False
645.678	0.0	0Suff NW	4	645678	thash	0.0	1.0	False
646.595	0.0	2Suff w/o Lat.	22	646595	partiality	1.0	0.0	False
648.02	0.0	0Suff NW	4	648020	gulbs	0.0	1.0	False
649.17	0.0	0Suff NW	4	649170	faulm	0.0	1.0	False
650.129	0.0	1Suff w/o Lat.	12	650129	glorify	1.0	0.0	False
651.238	0.0	1Suff w/o Lat.	12	651238	frightful	1.0	0.0	False
652.571	0.0	1Suff w/o Lat.	12	652571	leader	1.0	0.0	False
653.705	0.0	2Suff RealStemNW	25	653705	directality	0.0	1.0	False
655.272	0.0	2Suff RealStemNW	25	655272	deadionist	0.0	1.0	False
656.323	0.0	0Suff w/o Lat.	2	656323	govern	1.0	0.0	False
657.873	0.0	2Suff Composite	23	657873	affectation	1.0	0.0	False
660.174	0.0	0Suff NW	4	660174	pasnet	0.0	1.0	False
661.224	0.0	1Suff PseudoStemNW	14	661224	lenctional	0.0	1.0	False
662.241	0.0	1Suff RealStemNW	15	662241	thoughtive	0.0	1.0	False
663.516	0.0	0Suff w/ Lat.	1	663516	mistake	1.0	0.0	False
664.567	0.0	2Suff RealStemNW	25	664567	fatalize	0.0	0.0	True
666.117	0.0	1Suff w/o Lat.	12	666117	glorious	1.0	0.0	False
668.084	0.0	1Suff w/o Lat.	12	668084	relative	1.0	0.0	False
669.168	0.0	2Suff PseudoStemNW	24	669168	deterfuristic	0.0	1.0	False
670.135	0.0	2Suff w/o Lat.	22	670135	idealization	1.0	0.0	False
671.819	0.0	1Suff w/o Lat.	12	671819	global	1.0	0.0	False
672.836	0.0	2Suff w/o Lat.	22	672836	familiarize	1.0	0.0	False
673.853	0.0	2Suff PseudoStemNW	24	673853	dehonitive	0.0	1.0	False
675.003	0.0	2Suff w/o Lat.	22	675003	rhythmically	1.0	0.0	False
677.021	0.0	1Suff PseudoStemNW	14	677021	steadthy	0.0	1.0	False
678.588	0.0	1Suff w/o Lat.	12	678588	functional	1.0	0.0	False
679.638	0.0	2Suff PseudoStemNW	24	679638	cidlical	0.0	1.0	False
681.322	0.0	2Suff PseudoStemNW	24	681322	reratively	0.0	1.0	False
682.456	0.0	1Suff PseudoStemNW	14	682456	diruction	0.0	1.0	False
683.539	0.0	1Suff RealStemNW	15	683539	developward	0.0	1.0	False
685.381	0.0	1Suff PseudoStemNW	14	685381	nolable	0.0	1.0	False
686.398	0.0	0Suff w/o Lat.	2	686398	confess	1.0	0.0	False
688.057	0.0	0Suff NW	4	688057	essoils	0.0	1.0	False
689.299	0.0	0Suff w/ Lat.	1	689299	subject	1.0	0.0	False
726.552	0.0	0Suff w/o Lat.	2	726552	sleep	1.0	0.0	False
727.519	0.0	2Suff PseudoStemNW	24	727519	chotintically	0.0	1.0	False
728.445	0.0	2Suff w/o Lat.	22	728445	triviality	1.0	1.0	True
729.587	0.0	0Suff NW	4	729587	sushect	0.0	1.0	False
730.629	0.0	0Suff NW	4	730629	snought	0.0	1.0	False
731.462	0.0	1Suff w/ Lat.	11	731462	mistaken	1.0	0.0	False
732.288	0.0	0Suff NW	4	732288	paffer	0.0	1.0	False
733.33	0.0	1Suff w/o Lat.	12	733330	magnetic	1.0	0.0	False
734.363	0.0	0Suff NW	4	734363	arx	0.0	1.0	False
735.289	0.0	1Suff w/ Lat.	11	735289	projection	1.0	0.0	False
736.456	0.0	1Suff w/o Lat.	12	736456	painless	1.0	0.0	False
737.448	0.0	1Suff RealStemNW	15	737448	differify	0.0	1.0	False
738.448	0.0	2Suff PseudoStemNW	24	738448	miccessfully	0.0	1.0	False
739.531	0.0	0Suff w/o Lat.	2	739531	architect	1.0	0.0	False
740.607	0.0	0Suff w/ Lat.	1	740607	persist	1.0	0.0	False
741.924	0.0	2Suff w/ Lat.	21	741924	availability	1.0	0.0	False
743.441	0.0	0Suff NW	4	743441	mosime	0.0	1.0	False
744.341	0.0	1Suff PseudoStemNW	14	744341	farsen	0.0	1.0	False
745.442	0.0	1Suff w/o Lat.	12	745442	competitive	1.0	0.0	False
746.717	0.0	1Suff w/o Lat.	12	746717	provocative	1.0	0.0	False
748.401	0.0	0Suff w/o Lat.	2	748401	logic	1.0	0.0	False
749.309	0.0	0Suff w/o Lat.	2	749309	mobile	1.0	0.0	False
750.285	0.0	2Suff w/o Lat.	22	750285	adaptability	1.0	0.0	False
751.377	0.0	1Suff PseudoStemNW	14	751377	chansotion	0.0	1.0	False
752.327	0.0	2Suff Composite	23	752327	canonical	1.0	0.0	False
753.844	0.0	0Suff w/o Lat.	2	753844	adapt	1.0	0.0	False
754.803	0.0	1Suff w/o Lat.	12	754803	mythical	1.0	0.0	False
755.803	0.0	0Suff w/o Lat.	2	755803	profit	1.0	0.0	False
756.745	0.0	0Suff w/o Lat.	2	756745	valid	1.0	0.0	False
757.62	0.0	0Suff w/o Lat.	2	757620	grace	1.0	0.0	False
758.504	0.0	1Suff RealStemNW	15	758504	delightive	0.0	1.0	False
759.754	0.0	0Suff NW	4	759754	chird	0.0	1.0	False
761.863	0.0	1Suff PseudoStemNW	14	761863	fleepy	0.0	1.0	False
762.872	0.0	1Suff w/o Lat.	12	762872	idealist	1.0	0.0	False
764.031	0.0	2Suff Composite	23	764031	amplification	1.0	0.0	False
765.064	0.0	2Suff w/o Lat.	22	765064	nervously	1.0	0.0	False
766.273	0.0	0Suff NW	4	766273	hesa	0.0	1.0	False
767.24	0.0	1Suff PseudoStemNW	14	767240	etilor	0.0	0.0	True
768.424	0.0	1Suff w/o Lat.	12	768424	dramatic	1.0	0.0	False
770.049	0.0	0Suff w/ Lat.	1	770049	avail	1.0	0.0	False
771.483	0.0	1Suff w/o Lat.	12	771483	statistical	1.0	0.0	False
772.433	0.0	2Suff w/o Lat.	22	772433	poetical	1.0	0.0	False
774.584	0.0	0Suff w/o Lat.	2	774584	differ	1.0	0.0	False
775.434	0.0	0Suff NW	4	775434	wead	0.0	1.0	False
776.893	0.0	2Suff PseudoStemNW	24	776893	arfulness	0.0	1.0	False
779.219	0.0	2Suff w/o Lat.	22	779219	validation	1.0	0.0	False
780.177	0.0	0Suff w/o Lat.	2	780177	rhythm	1.0	0.0	False
781.286	0.0	0Suff w/o Lat.	2	781286	order	1.0	0.0	False
782.22	0.0	1Suff RealStemNW	15	782220	differious	0.0	1.0	False
783.387	0.0	0Suff NW	4	783387	uspasion	0.0	1.0	False
785.004	0.0	0Suff NW	4	785004	cossete	0.0	1.0	False
786.104	0.0	2Suff RealStemNW	25	786104	impressliness	0.0	1.0	False
787.513	0.0	1Suff w/o Lat.	12	787513	logical	1.0	0.0	False
788.697	0.0	0Suff NW	4	788697	eltene	0.0	1.0	False
789.672	0.0	2Suff PseudoStemNW	24	789672	essoilially	0.0	1.0	False
790.697	0.0	0Suff NW	4	790697	fleep	0.0	1.0	False
791.689	0.0	2Suff PseudoStemNW	24	791689	rerational	0.0	1.0	False
792.556	0.0	1Suff PseudoStemNW	14	792556	thiendly	0.0	1.0	False
793.681	0.0	2Suff w/o Lat.	22	793681	delightfully	1.0	0.0	False
794.949	0.0	1Suff PseudoStemNW	14	794949	preguctable	0.0	1.0	False
795.857	0.0	2Suff PseudoStemNW	24	795857	pinonical	0.0	1.0	False
796.732	0.0	1Suff w/o Lat.	12	796732	commentate	1.0	1.0	True
798.475	0.0	2Suff w/o Lat.	22	798475	painfully	1.0	0.0	False
799.467	0.0	1Suff w/ Lat.	11	799467	impression	1.0	0.0	False
800.742	0.0	2Suff RealStemNW	25	800742	confessality	0.0	1.0	False
802.818	0.0	2Suff PseudoStemNW	24	802818	watefulness	0.0	1.0	False
803.96	0.0	0Suff NW	4	803960	coppent	0.0	1.0	False
804.893	0.0	0Suff w/o Lat.	2	804893	poet	1.0	0.0	False
805.927	0.0	0Suff w/o Lat.	2	805927	define	1.0	0.0	False
807.136	0.0	2Suff w/o Lat.	22	807136	marginally	1.0	0.0	False
808.911	0.0	2Suff PseudoStemNW	24	808911	esdybitionism	0.0	1.0	False
809.97	0.0	2Suff w/o Lat.	22	809970	forgetfulness	1.0	0.0	False
811.087	0.0	1Suff RealStemNW	15	811087	gleeive	0.0	1.0	False
812.154	0.0	2Suff RealStemNW	25	812154	commutfully	0.0	1.0	False
813.896	0.0	2Suff Composite	23	813896	revitalization	1.0	0.0	False
815.488	0.0	2Suff w/ Lat.	21	815488	affectionate	1.0	0.0	False
816.764	0.0	0Suff NW	4	816764	fleed	0.0	1.0	False
817.939	0.0	1Suff w/o Lat.	12	817939	thoughtful	1.0	0.0	False
819.514	0.0	0Suff NW	4	819514	degor	0.0	1.0	False
820.631	0.0	2Suff w/o Lat.	22	820631	substantially	1.0	0.0	False
821.982	0.0	2Suff w/o Lat.	22	821982	commentator	1.0	0.0	False
824.024	0.0	0Suff w/o Lat.	2	824024	isolate	1.0	0.0	False
825.033	0.0	2Suff w/o Lat.	22	825033	differently	1.0	0.0	False
826.05	0.0	1Suff RealStemNW	15	826050	hopeable	0.0	1.0	False
827.242	0.0	2Suff RealStemNW	25	827242	periodally	0.0	0.0	True
828.2	0.0	2Suff PseudoStemNW	24	828200	stoteldionist	0.0	1.0	False
829.676	0.0	0Suff NW	4	829676	manfin	0.0	1.0	False
830.735	0.0	1Suff RealStemNW	15	830735	basly	0.0	1.0	False
831.777	0.0	2Suff w/o Lat.	22	831777	trivialize	1.0	0.0	False
833.235	0.0	0Suff NW	4	833235	urmer	0.0	1.0	False
834.169	0.0	1Suff w/o Lat.	12	834169	relation	1.0	0.0	False
835.311	0.0	2Suff RealStemNW	25	835311	isolatliness	0.0	1.0	False
836.628	0.0	0Suff w/o Lat.	2	836628	glory	1.0	0.0	False
837.745	0.0	0Suff w/o Lat.	2	837745	finance	1.0	0.0	False
838.812	0.0	2Suff w/ Lat.	21	838812	subjectivity	1.0	0.0	False
840.313	0.0	2Suff RealStemNW	25	840313	affirmatfully	0.0		False
842.713	0.0	0Suff w/o Lat.	2	842713	comment	1.0	0.0	False
843.714	0.0	0Suff w/o Lat.	2	843714	part	1.0	0.0	False
844.831	0.0	0Suff NW	4	844831	glibe	0.0	1.0	False
845.848	0.0	2Suff PseudoStemNW	24	845848	awditional	0.0	1.0	False
847.131	0.0	0Suff w/o Lat.	2	847131	assassin	1.0	0.0	False
848.207	0.0	0Suff NW	4	848207	grame	0.0	1.0	False
849.415	0.0	1Suff PseudoStemNW	14	849415	fralatize	0.0	1.0	False
850.532	0.0	2Suff RealStemNW	25	850532	decisishness	0.0	1.0	False
851.966	0.0	1Suff w/o Lat.	12	851966	accidental	1.0	0.0	False
853.0	0.0	0Suff w/o Lat.	2	853000	trivia	1.0	0.0	False
854.65	0.0	0Suff NW	4	854650	mistile	0.0	1.0	False
855.842	0.0	2Suff Composite	23	855842	vexation	1.0	1.0	True
857.476	0.0	2Suff RealStemNW	25	857476	believator	0.0	1.0	False
858.852	0.0	0Suff NW	4	858852	pipsist	0.0	1.0	False
859.877	0.0	0Suff w/o Lat.	2	859877	ideal	1.0	0.0	False
861.161	0.0	1Suff RealStemNW	15	861161	periodal	0.0	1.0	False
862.686	0.0	1Suff RealStemNW	15	862686	useive	0.0	1.0	False
863.803	0.0	2Suff w/o Lat.	22	863803	financially	1.0	0.0	False
865.395	0.0	2Suff RealStemNW	25	865395	vitalilessly	0.0	1.0	False
867.112	0.0	2Suff Composite	23	867112	quotation	1.0	0.0	False
868.288	0.0	1Suff w/ Lat.	11	868288	affection	1.0	0.0	False
869.33	0.0	0Suff NW	4	869330	ippune	0.0	1.0	False
870.305	0.0	1Suff w/o Lat.	12	870305	government	1.0	0.0	False
915.527	0.0	1Suff PseudoStemNW	14	915527	wrotify	0.0	1.0	False
916.511	0.0	1Suff w/o Lat.	12	916511	different	1.0	0.0	False
917.536	0.0	1Suff PseudoStemNW	14	917536	nolify	0.0	1.0	False
918.503	0.0	2Suff w/ Lat.	21	918503	projectionist	1.0	1.0	True
920.137	0.0	2Suff w/o Lat.	22	920137	assassination	1.0	0.0	False
921.071	0.0	0Suff w/o Lat.	2	921071	faith	1.0	0.0	False
922.063	0.0	2Suff Composite	23	922063	utilization	1.0	0.0	False
923.513	0.0	0Suff NW	4	923513	onnense	0.0	1.0	False
924.488	0.0	2Suff PseudoStemNW	24	924488	figically	0.0	1.0	False
925.48	0.0	2Suff w/o Lat.	22	925480	reasonably	1.0	0.0	False
926.689	0.0	2Suff w/o Lat.	22	926689	mythically	1.0	0.0	False
927.706	0.0	2Suff RealStemNW	25	927706	seasonical	0.0	1.0	False
929.732	0.0	1Suff w/o Lat.	12	929732	originate	1.0	0.0	False
930.782	0.0	1Suff w/o Lat.	12	930782	hopeful	1.0	0.0	False
931.782	0.0	0Suff w/o Lat.	2	931782	agree	1.0	0.0	False
932.933	0.0	2Suff w/ Lat.	21	932933	conceptually	1.0	0.0	False
934.0	0.0	1Suff w/o Lat.	12	934000	cheerful	1.0	0.0	False
935.15	0.0	0Suff w/o Lat.	2	935150	out	1.0	0.0	False
936.192	0.0	0Suff w/o Lat.	2	936192	stealth	1.0	0.0	False
937.101	0.0	2Suff w/o Lat.	22	937101	materialistic	1.0	0.0	False
938.109	0.0	2Suff PseudoStemNW	24	938109	vimidation	0.0	1.0	False
939.185	0.0	2Suff PseudoStemNW	24	939185	paftiality	0.0	1.0	False
940.302	0.0	1Suff PseudoStemNW	14	940302	chotintical	0.0	1.0	False
941.36	0.0	1Suff RealStemNW	15	941360	sterilist	0.0	1.0	False
942.477	0.0	0Suff NW	4	942477	falget	0.0	1.0	False
943.419	0.0	2Suff w/o Lat.	22	943419	immunization	1.0	0.0	False
944.503	0.0	2Suff RealStemNW	25	944503	conceptuical	0.0	1.0	False
945.92	0.0	1Suff PseudoStemNW	14	945920	pavediadist	0.0	1.0	False
946.912	0.0	1Suff PseudoStemNW	14	946912	snoughtless	0.0	1.0	False
948.096	0.0	2Suff RealStemNW	25	948096	governancial	0.0	1.0	False
949.171	0.0	2Suff RealStemNW	25	949171	dramationist	0.0	1.0	False
950.163	0.0	1Suff w/o Lat.	12	950163	basic	1.0	0.0	False
951.163	0.0	2Suff RealStemNW	25	951163	polioner	0.0	1.0	False
952.13	0.0	1Suff RealStemNW	15	952130	ritualify	0.0	1.0	False
953.097	0.0	2Suff RealStemNW	25	953097	persistalism	0.0	1.0	False
954.306	0.0	1Suff w/o Lat.	12	954306	soften	1.0	0.0	False
955.34	0.0	2Suff w/o Lat.	22	955340	ritualistic	1.0	0.0	False
956.39	0.0	2Suff PseudoStemNW	24	956390	analkability	0.0	1.0	False
957.532	0.0	1Suff w/o Lat.	12	957532	familiar	1.0	0.0	False
958.549	0.0	2Suff RealStemNW	25	958549	exhaustfully	0.0	0.0	True
959.874	0.0	1Suff PseudoStemNW	14	959874	arful	0.0	1.0	False
961.258	0.0	1Suff w/o Lat.	12	961258	successful	1.0	0.0	False
962.292	0.0	2Suff PseudoStemNW	24	962292	thashfulness	0.0	1.0	False
963.392	0.0	2Suff PseudoStemNW	24	963392	distawksively	0.0	1.0	False
964.384	0.0	1Suff PseudoStemNW	14	964384	concolerable	0.0	1.0	False
965.701	0.0	2Suff RealStemNW	25	965701	subjectously	0.0	1.0	False
967.027	0.0	2Suff PseudoStemNW	24	967027	hythically	0.0	1.0	False
968.21	0.0	1Suff PseudoStemNW	14	968210	rumical	0.0	1.0	False
969.252	0.0	1Suff w/ Lat.	11	969252	persistent	1.0	0.0	False
970.353	0.0	2Suff PseudoStemNW	24	970353	concolerably	0.0	1.0	False
971.628	0.0	2Suff w/o Lat.	22	971628	speedily	1.0	0.0	False
972.987	0.0	0Suff w/o Lat.	2	972987	real	1.0	0.0	False
973.887	0.0	1Suff w/o Lat.	12	973887	delightful	1.0	0.0	False
974.746	0.0	1Suff PseudoStemNW	14	974746	wrotious	0.0	1.0	False
975.671	0.0	1Suff w/o Lat.	12	975671	agreeable	1.0	0.0	False
977.021	0.0	2Suff RealStemNW	25	977021	decorural	0.0	1.0	False
977.922	0.0	2Suff w/o Lat.	22	977922	educational	1.0	0.0	False
978.947	0.0	1Suff PseudoStemNW	14	978947	hodeful	0.0	1.0	False
980.006	0.0	0Suff w/ Lat.	1	980006	concept	1.0	0.0	False
981.022	0.0	1Suff w/o Lat.	12	981022	distinctive	1.0	0.0	False
982.156	0.0	1Suff RealStemNW	15	982156	persuasful	0.0	0.0	True
983.056	0.0	2Suff w/ Lat.	21	983056	instructional	1.0		False
985.449	0.0	0Suff NW	4	985449	tuty	0.0	1.0	False
986.608	0.0	2Suff RealStemNW	25	986608	relatifiable	0.0	1.0	False
987.6	0.0	0Suff w/o Lat.	2	987600	thick	1.0	0.0	False
988.441	0.0	1Suff RealStemNW	15	988441	familior	0.0	1.0	False
989.358	0.0	0Suff NW	4	989358	betiece	0.0	1.0	False
990.25	0.0	0Suff NW	4	990250	bant	0.0	1.0	False
991.509	0.0	0Suff w/o Lat.	2	991509	worth	1.0	0.0	False
992.418	0.0	2Suff w/o Lat.	22	992418	relativism	1.0	0.0	False
993.576	0.0	2Suff RealStemNW	25	993576	sleepery	0.0	1.0	False
994.718	0.0	2Suff Composite	23	994718	perturbation	1.0	1.0	True
996.602	0.0	0Suff NW	4	996602	halk	0.0	1.0	False
997.594	0.0	0Suff NW	4	997594	pask	0.0	1.0	False
998.453	0.0	0Suff w/o Lat.	2	998453	ritual	1.0	0.0	False
999.62	0.0	2Suff w/o Lat.	22	999620	directorship	1.0	1.0	True
1000.737	0.0	0Suff w/o Lat.	2	1000737	market	1.0	0.0	False
1002.012	0.0	0Suff w/o Lat.	2	1002012	margin	1.0	0.0	False
1003.805	0.0	1Suff w/o Lat.	12	1003805	decorate	1.0	1.0	True
1005.438	0.0	2Suff PseudoStemNW	24	1005438	snightfully	0.0	1.0	False
1007.156	0.0	1Suff w/o Lat.	12	1007156	assassinate	1.0	0.0	False
1008.106	0.0	0Suff NW	4	1008106	detisms	0.0	1.0	False
1009.098	0.0	2Suff w/o Lat.	22	1009098	architectural	1.0	0.0	False
1010.365	0.0	2Suff RealStemNW	25	1010365	soulively	0.0	1.0	False
1011.357	0.0	2Suff w/o Lat.	22	1011357	fatally	1.0	0.0	False
1012.657	0.0	2Suff w/o Lat.	22	1012657	awfully	1.0	0.0	False
1013.733	0.0	1Suff RealStemNW	15	1013733	logicic	0.0	1.0	False
1014.958	0.0	2Suff RealStemNW	25	1014958	poetally	0.0	1.0	False
1016.042	0.0	2Suff w/o Lat.	22	1016042	healthily	1.0	0.0	False
1017.259	0.0	1Suff w/o Lat.	12	1017259	thoughtless	1.0	0.0	False
1018.551	0.0	1Suff w/ Lat.	11	1018551	exhibition	1.0	0.0	False
1020.218	0.0	0Suff NW	4	1020218	affaid	0.0	1.0	False
1021.318	0.0	2Suff w/o Lat.	22	1021318	deadliness	1.0	0.0	False
1022.544	0.0	2Suff PseudoStemNW	24	1022544	deabonably	0.0	1.0	False
1023.677	0.0	0Suff NW	4	1023677	orifad	0.0	1.0	False
1024.678	0.0	0Suff w/o Lat.	2	1024678	educate	1.0	0.0	False
1025.945	0.0	2Suff RealStemNW	25	1025945	guiltioner	0.0	1.0	False
1027.428	0.0	2Suff w/o Lat.	22	1027428	decorative	1.0	0.0	False
1029.071	0.0	2Suff PseudoStemNW	24	1029071	tipeliness	0.0	1.0	False
1030.546	0.0	2Suff PseudoStemNW	24	1030546	nerbously	0.0	1.0	False
1031.546	0.0	2Suff RealStemNW	25	1031546	aimiously	0.0	1.0	False
1032.788	0.0	0Suff w/o Lat.	2	1032788	wake	1.0	0.0	False
1033.797	0.0	1Suff w/o Lat.	12	1033797	useless	1.0	0.0	False
1035.031	0.0	2Suff PseudoStemNW	24	1035031	cossetitively	0.0	1.0	False
1036.064	0.0	0Suff w/o Lat.	2	1036064	statistic	1.0	0.0	False
1037.59	0.0	1Suff w/o Lat.	12	1037590	execution	1.0	0.0	False
1039.699	0.0	0Suff w/ Lat.	1	1039699	affirm	1.0	0.0	False
1040.724	0.0	1Suff PseudoStemNW	14	1040724	ramial	0.0		False
1043.117	0.0	2Suff w/o Lat.	22	1043117	aimlessly	1.0	0.0	False
1044.809	0.0	2Suff w/o Lat.	22	1044809	agreeably	1.0	0.0	False
1046.001	0.0	0Suff NW	4	1046001	priueur	0.0	1.0	False
1047.018	0.0	1Suff w/o Lat.	12	1047018	moisture	1.0	0.0	False
1048.11	0.0	0Suff NW	4	1048110	nerbs	0.0	1.0	False
1049.06	0.0	0Suff NW	4	1049060	restit	0.0	1.0	False
1050.01	0.0	2Suff w/o Lat.	22	1050010	gracefully	1.0	0.0	False
1050.969	0.0	1Suff PseudoStemNW	14	1050969	appigental	0.0	1.0	False
1051.978	0.0	1Suff w/ Lat.	11	1051978	conceptual	1.0	0.0	False
1052.945	0.0	0Suff NW	4	1052945	awd	0.0	1.0	False
1053.82	0.0	1Suff RealStemNW	15	1053820	instructate	0.0	1.0	False
1103.494	0.0	0Suff NW	4	1103494	frala	0.0	1.0	False
1104.519	0.0	1Suff w/o Lat.	12	1104519	regrettable	1.0	0.0	False
1106.236	0.0	1Suff PseudoStemNW	14	1106236	tipely	0.0	1.0	False
1107.136	0.0	0Suff w/o Lat.	2	1107136	guard	1.0	0.0	False
1108.095	0.0	0Suff NW	4	1108095	girern	0.0	1.0	False
1108.97	0.0	2Suff PseudoStemNW	24	1108970	utefully	0.0	1.0	False
1110.046	0.0	2Suff PseudoStemNW	24	1110046	segnonistic	0.0	1.0	False
1110.921	0.0	2Suff w/o Lat.	22	1110921	globally	1.0	0.0	False
1112.021	0.0	0Suff w/ Lat.	1	1112021	progress	1.0	0.0	False
1112.905	0.0	0Suff w/o Lat.	2	1112905	rest	1.0	0.0	False
1113.763	0.0	1Suff RealStemNW	15	1113763	successate	0.0	1.0	False
1114.764	0.0	2Suff PseudoStemNW	24	1114764	carbisalistic	0.0	1.0	False
1115.706	0.0	0Suff NW	4	1115706	manhet	0.0	1.0	False
1116.539	0.0	0Suff NW	4	1116539	desalk	0.0	1.0	False
1117.373	0.0	2Suff PseudoStemNW	24	1117373	lenctionally	0.0	1.0	False
1118.231	0.0	2Suff RealStemNW	25	1118231	provocatfully	0.0	1.0	False
1119.107	0.0	2Suff Composite	23	1119107	commutation	1.0	0.0	False
1119.974	0.0	1Suff w/o Lat.	12	1119974	graceful	1.0	0.0	False
1121.291	0.0	1Suff PseudoStemNW	14	1121291	snightful	0.0	1.0	False
1122.249	0.0	1Suff PseudoStemNW	14	1122249	cunerogial	0.0	1.0	False
1123.2	0.0	2Suff w/o Lat.	22	1123200	realistic	1.0	0.0	False
1124.717	0.0	0Suff w/o Lat.	2	1124717	add	1.0	0.0	False
1125.709	0.0	2Suff w/o Lat.	22	1125709	decorator	1.0	0.0	False
1127.876	0.0	2Suff RealStemNW	25	1127876	futurional	0.0	1.0	False
1128.876	0.0	2Suff PseudoStemNW	24	1128876	snoughtfully	0.0	1.0	False
1129.86	0.0	0Suff NW	4	1129860	chansot	0.0	1.0	False
1130.827	0.0	0Suff NW	4	1130827	prowert	0.0	1.0	False
1131.861	0.0	1Suff PseudoStemNW	14	1131861	girernment	0.0	1.0	False
1132.861	0.0	1Suff w/o Lat.	12	1132861	confession	1.0	0.0	False
1133.945	0.0	1Suff RealStemNW	15	1133945	forgetive	0.0	1.0	False
1135.095	0.0	2Suff RealStemNW	25	1135095	projectliness	0.0	1.0	False
1136.212	0.0	1Suff w/o Lat.	12	1136212	timely	1.0	0.0	False
1137.629	0.0	0Suff w/o Lat.	2	1137629	cheer	1.0	0.0	False
1138.938	0.0	2Suff w/o Lat.	22	1138938	guiltiness	1.0	0.0	False
1140.53	0.0	1Suff RealStemNW	15	1140530	gracance	0.0	1.0	False
1141.905	0.0	1Suff w/o Lat.	12	1141905	triumphant	1.0	0.0	False
1143.664	0.0	1Suff PseudoStemNW	14	1143664	thacken	0.0	1.0	False
1144.631	0.0	1Suff PseudoStemNW	14	1144631	eseretion	0.0	1.0	False
1145.573	0.0	0Suff w/o Lat.	2	1145573	ease	1.0	0.0	False
1146.657	0.0	1Suff w/o Lat.	12	1146657	thankful	1.0	0.0	False
1148.141	0.0	2Suff w/o Lat.	22	1148141	functionally	1.0	0.0	False
1149.408	0.0	1Suff RealStemNW	15	1149408	isolatate	0.0	1.0	False
1150.866	0.0	0Suff w/o Lat.	2	1150866	persuade	1.0	0.0	False
1151.875	0.0	2Suff w/o Lat.	22	1151875	additional	1.0		False
1154.276	0.0	1Suff RealStemNW	15	1154276	agreeless	0.0	1.0	False
1155.626	0.0	0Suff w/o Lat.	2	1155626	period	1.0	0.0	False
1156.652	0.0	2Suff PseudoStemNW	24	1156652	concuchualize	0.0	1.0	False
1157.66	0.0	0Suff w/o Lat.	2	1157660	essence	1.0	0.0	False
1158.986	0.0	0Suff NW	4	1158986	devade	0.0	1.0	False
1159.969	0.0	0Suff w/o Lat.	2	1159969	regret	1.0	0.0	False
1161.061	0.0	1Suff RealStemNW	15	1161061	extensful	0.0	1.0	False
1162.662	0.0	2Suff Composite	23	1162662	militarization	1.0	0.0	False
1163.829	0.0	2Suff Composite	23	1163829	categorical	1.0	0.0	False
1165.029	0.0	2Suff Composite	23	1165029	corporation	1.0	0.0	False
1167.171	0.0	2Suff PseudoStemNW	24	1167171	adstification	0.0	1.0	False
1168.113	0.0	2Suff w/ Lat.	21	1168113	predictably	1.0	0.0	False
1169.481	0.0	1Suff PseudoStemNW	14	1169481	grameful	0.0	1.0	False
1170.656	0.0	2Suff RealStemNW	25	1170656	agreeally	0.0	1.0	False
1172.281	0.0	1Suff w/o Lat.	12	1172281	persuasive	1.0	0.0	False
1173.515	0.0	0Suff NW	4	1173515	ute	0.0	1.0	False
1174.474	0.0	1Suff w/o Lat.	12	1174474	direction	1.0	0.0	False
1176.616	0.0	1Suff w/o Lat.	12	1176616	aimless	1.0	1.0	True
1177.65	0.0	2Suff RealStemNW	25	1177650	ailistic	0.0	1.0	False
1179.3	0.0	0Suff w/o Lat.	2	1179300	transit	1.0	0.0	False
1180.359	0.0	2Suff RealStemNW	25	1180359	cheerability	0.0	1.0	False
1181.768	0.0	0Suff NW	4	1181768	vimid	0.0	1.0	False
1182.71	0.0	1Suff RealStemNW	15	1182710	protectate	0.0	1.0	False
1183.827	0.0	2Suff PseudoStemNW	24	1183827	fleedily	0.0	1.0	False
1185.169	0.0	2Suff w/o Lat.	22	1185169	executioner	1.0	0.0	False
1187.078	0.0	2Suff RealStemNW	25	1187078	graceively	0.0	1.0	False
1188.386	0.0	1Suff w/o Lat.	12	1188386	profitable	1.0	0.0	False
1189.82	0.0	2Suff RealStemNW	25	1189820	affectorship	0.0	1.0	False
1190.937	0.0	0Suff w/o Lat.	2	1190937	exhaust	1.0		False
1193.346	0.0	0Suff w/o Lat.	2	1193346	direct	1.0	0.0	False
1194.438	0.0	1Suff RealStemNW	15	1194438	magnetal	0.0	1.0	False
1195.572	0.0	2Suff PseudoStemNW	24	1195572	gloofully	0.0	1.0	False
1196.531	0.0	2Suff RealStemNW	25	1196531	characterional	0.0	1.0	False
1197.631	0.0	1Suff w/o Lat.	12	1197631	thicken	1.0	0.0	False
1198.69	0.0	2Suff PseudoStemNW	24	1198690	headthily	0.0	1.0	False
1199.707	0.0	2Suff RealStemNW	25	1199707	familiately	0.0	1.0	False
1200.657	0.0	0Suff NW	4	1200657	gloo	0.0	1.0	False
1201.699	0.0	2Suff w/o Lat.	22	1201699	fatality	1.0	0.0	False
1203.566	0.0	2Suff w/ Lat.	21	1203566	mistakenly	1.0	0.0	False
1205.333	0.0	2Suff w/o Lat.	22	1205333	cheerfully	1.0	0.0	False
1206.434	0.0	2Suff w/o Lat.	22	1206434	softener	1.0	0.0	False
1207.551	0.0	0Suff NW	4	1207551	miccess	0.0	1.0	False
1208.601	0.0	1Suff w/ Lat.	11	1208601	predictable	1.0	0.0	False
1209.826	0.0	2Suff RealStemNW	25	1209826	predictator	0.0	1.0	False
1211.443	0.0	0Suff NW	4	1211443	chotintic	0.0	1.0	False
1212.477	0.0	2Suff w/ Lat.	21	1212477	impressionism	1.0	0.0	False
1213.819	0.0	2Suff w/o Lat.	22	1213819	timeliness	1.0	0.0	False
1214.886	0.0	1Suff w/o Lat.	12	1214886	poetic	1.0	0.0	False
1216.078	0.0	2Suff PseudoStemNW	24	1216078	stumiality	0.0	1.0	False
1217.079	0.0	0Suff w/o Lat.	2	1217079	aim	1.0	0.0	False
1218.196	0.0	2Suff PseudoStemNW	24	1218196	orifadally	0.0	1.0	False
1219.196	0.0	0Suff w/o Lat.	2	1219196	material	1.0	0.0	False
1220.196	0.0	2Suff RealStemNW	25	1220196	restiousness	0.0	1.0	False
1221.196	0.0	2Suff w/o Lat.	22	1221196	manliness	1.0	0.0	False
1222.48	0.0	0Suff NW	4	1222480	deabon	0.0	1.0	False
1223.681	0.0	2Suff RealStemNW	25	1223681	financeical	0.0	1.0	False
1225.031	0.0	0Suff w/o Lat.	2	1225031	execute	1.0	0.0	False
1226.331	0.0	0Suff NW	4	1226331	prebit	0.0	1.0	False
1227.398	0.0	0Suff NW	4	1227398	cunerogy	0.0	1.0	False
1228.465	0.0	2Suff PseudoStemNW	24	1228465	prebitably	0.0	1.0	False
1230.024	0.0	0Suff NW	4	1230024	chier	0.0	1.0	False
1231.133	0.0	0Suff NW	4	1231133	peece	0.0	1.0	False
1232.3	0.0	0Suff w/o Lat.	2	1232300	peace	1.0	0.0	False
1233.734	0.0	2Suff PseudoStemNW	24	1233734	imoatization	0.0	1.0	False
1234.901	0.0	1Suff w/o Lat.	12	1234901	useful	1.0	0.0	False
1236.226	0.0	1Suff w/o Lat.	12	1236226	addition	1.0	0.0	False
1237.393	0.0	2Suff RealStemNW	25	1237393	easery	0.0	1.0	False
1238.752	0.0	2Suff RealStemNW	25	1238752	immunability	0.0		False
1241.153	0.0	0Suff w/o Lat.	2	1241153	lead	1.0	0.0	False
1242.103	0.0	0Suff w/o Lat.	2	1242103	harm	1.0	0.0	False
1243.145	0.0	0Suff NW	4	1243145	thiend	0.0	1.0	False
1244.179	0.0	2Suff RealStemNW	25	1244179	assassinfully	0.0	1.0	False
1245.546	0.0	2Suff PseudoStemNW	24	1245546	posicarization	0.0	1.0	False
1246.504	0.0	2Suff PseudoStemNW	24	1246504	priueurantly	0.0	1.0	False
1247.405	0.0	2Suff RealStemNW	25	1247405	painively	0.0	1.0	False
1284.608	0.0	1Suff PseudoStemNW	14	1284608	falal	0.0	1.0	False
1285.541	0.0	2Suff PseudoStemNW	24	1285541	utelessness	0.0	1.0	False
1286.425	0.0	2Suff RealStemNW	25	1286425	glorifilessly	0.0	1.0	False
1287.342	0.0	2Suff w/o Lat.	22	1287342	accidentally	1.0	0.0	False
1288.259	0.0	1Suff w/o Lat.	12	1288259	marketable	1.0	0.0	False
1289.251	0.0	2Suff w/o Lat.	22	1289251	faithfully	1.0	0.0	False
1290.159	0.0	2Suff PseudoStemNW	24	1290159	pafleurization	0.0	1.0	False
1291.043	0.0	1Suff w/o Lat.	12	1291043	guilty	1.0	0.0	False
1292.093	0.0	1Suff w/o Lat.	12	1292093	immunize	1.0	0.0	False
1293.244	0.0	2Suff w/o Lat.	22	1293244	thoughtfully	1.0	0.0	False
1294.436	0.0	2Suff w/o Lat.	22	1294436	thickener	1.0	0.0	False
1295.403	0.0	1Suff w/o Lat.	12	1295403	peaceful	1.0	0.0	False
1296.236	0.0	1Suff PseudoStemNW	14	1296236	gulbsian	0.0	1.0	False
1297.153	0.0	2Suff PseudoStemNW	24	1297153	pafferentiate	0.0	1.0	False
1298.045	0.0	2Suff w/o Lat.	22	1298045	graciously	1.0	0.0	False
1299.037	0.0	2Suff RealStemNW	25	1299037	musicical	0.0	0.0	True
1300.146	0.0	0Suff NW	4	1300146	exufant	0.0	1.0	False
1301.271	0.0	2Suff PseudoStemNW	24	1301271	eltensively	0.0	1.0	False
1302.28	0.0	2Suff RealStemNW	25	1302280	glorliness	0.0	1.0	False
1303.355	0.0	2Suff w/o Lat.	22	1303355	partially	1.0	1.0	True
1304.272	0.0	1Suff RealStemNW	15	1304272	persistify	0.0	1.0	False
1305.606	0.0	0Suff NW	4	1305606	diruce	0.0	1.0	False
1306.573	0.0	0Suff w/o Lat.	2	1306573	moist	1.0	0.0	False
1307.498	0.0	1Suff w/o Lat.	12	1307498	development	1.0	0.0	False
1308.982	0.0	0Suff w/o Lat.	2	1308982	origin	1.0	0.0	False
1309.915	0.0	0Suff NW	4	1309915	helily	0.0	1.0	False
1310.899	0.0	1Suff PseudoStemNW	14	1310899	vimidate	0.0	1.0	False
1311.816	0.0	2Suff RealStemNW	25	1311816	differalism	0.0	1.0	False
1313.867	0.0	0Suff NW	4	1313867	atrie	0.0	1.0	False
1314.825	0.0	0Suff w/o Lat.	2	1314825	guilt	1.0	0.0	False
1315.859	0.0	2Suff RealStemNW	25	1315859	manionist	0.0	1.0	False
1317.259	0.0	2Suff PseudoStemNW	24	1317259	mistilenly	0.0	1.0	False
1318.318	0.0	1Suff RealStemNW	15	1318318	eany	0.0	1.0	False
1319.335	0.0	2Suff Composite	23	1319335	cannibalistic	1.0	0.0	False
1321.427	0.0	2Suff RealStemNW	25	1321427	definerize	0.0	1.0	False
1322.528	0.0	0Suff NW	4	1322528	mowth	0.0	1.0	False
1323.653	0.0	0Suff w/o Lat.	2	1323653	thought	1.0	0.0	False
1324.695	0.0	1Suff w/o Lat.	12	1324695	isolation	1.0	0.0	False
1325.854	0.0	0Suff NW	4	1325854	musual	0.0	1.0	False
1326.879	0.0	2Suff w/o Lat.	22	1326879	usefully	1.0	0.0	False
1327.971	0.0	2Suff RealStemNW	25	1327971	executarity	0.0	1.0	False
1328.98	0.0	1Suff w/o Lat.	12	1328980	restless	1.0	0.0	False
1330.013	0.0	1Suff RealStemNW	15	1330013	realify	0.0	1.0	False
1330.98	0.0	1Suff w/o Lat.	12	1330980	gleeful	1.0	0.0	False
1332.081	0.0	0Suff NW	4	1332081	rumic	0.0	1.0	False
1333.156	0.0	2Suff PseudoStemNW	24	1333156	worchlessness	0.0	1.0	False
1334.281	0.0	2Suff w/o Lat.	22	1334281	nervousness	1.0	0.0	False
1336.415	0.0	0Suff w/o Lat.	2	1336415	pole	1.0	1.0	True
1337.316	0.0	1Suff RealStemNW	15	1337316	polit	0.0	1.0	False
1338.341	0.0	1Suff w/o Lat.	12	1338341	outward	1.0	0.0	False
1339.241	0.0	2Suff w/o Lat.	22	1339241	decisiveness	1.0	0.0	False
1340.667	0.0	1Suff w/o Lat.	12	1340667	gracious	1.0	0.0	False
1342.459	0.0	2Suff w/ Lat.	21	1342459	subjectively	1.0	0.0	False
1343.743	0.0	1Suff w/o Lat.	12	1343743	wakeful	1.0	0.0	False
1344.751	0.0	2Suff Composite	23	1344751	inflammation	1.0	0.0	False
1345.952	0.0	1Suff RealStemNW	15	1345952	conceptuic	0.0	1.0	False
1347.319	0.0	2Suff w/o Lat.	22	1347319	fatalist	1.0	0.0	False
1348.594	0.0	2Suff w/o Lat.	22	1348594	considerably	1.0	0.0	False
1349.686	0.0	0Suff w/ Lat.	1	1349686	impress	1.0	0.0	False
1350.653	0.0	2Suff PseudoStemNW	24	1350653	urhanization	0.0	1.0	False
1351.878	0.0	0Suff NW	4	1351878	rame	0.0	1.0	False
1353.187	0.0	1Suff RealStemNW	15	1353187	childory	0.0	1.0	False
1354.129	0.0	0Suff w/o Lat.	2	1354129	use	1.0	0.0	False
1355.371	0.0	2Suff w/o Lat.	22	1355371	relationship	1.0	0.0	False
1356.438	0.0	0Suff w/o Lat.	2	1356438	awe	1.0	0.0	False
1357.83	0.0	0Suff NW	4	1357830	preguct	0.0	1.0	False
1359.172	0.0	2Suff w/o Lat.	22	1359172	triumphantly	1.0	0.0	False
1360.348	0.0	0Suff w/o Lat.	2	1360348	immune	1.0	0.0	False
1361.665	0.0	1Suff RealStemNW	15	1361665	manen	0.0	1.0	False
1362.632	0.0	2Suff RealStemNW	25	1362632	materialional	0.0	1.0	False
1363.749	0.0	0Suff NW	4	1363749	itcress	0.0	1.0	False
1364.741	0.0	2Suff RealStemNW	25	1364741	quotfully	0.0	1.0	False
1365.716	0.0	1Suff w/o Lat.	12	1365716	rhythmic	1.0	0.0	False
1367.95	0.0	1Suff RealStemNW	15	1367950	provocatful	0.0	1.0	False
1369.059	0.0	2Suff Composite	23	1369059	biblical	1.0	0.0	False
1370.226	0.0	2Suff PseudoStemNW	24	1370226	pafferential	0.0	1.0	False
1371.793	0.0	1Suff w/ Lat.	11	1371793	subjective	1.0	0.0	False
1372.86	0.0	0Suff w/o Lat.	2	1372860	fright	1.0	0.0	False
1374.102	0.0	2Suff PseudoStemNW	24	1374102	pipplification	0.0		False
1376.511	0.0	0Suff NW	4	1376511	pead	0.0	1.0	False
1377.861	0.0	0Suff NW	4	1377861	instrove	0.0	1.0	False
1379.228	0.0	1Suff w/o Lat.	12	1379228	hopeless	1.0	0.0	False
1380.137	0.0	2Suff RealStemNW	25	1380137	editionate	0.0	1.0	False
1381.121	0.0	2Suff w/o Lat.	22	1381121	peacefully	1.0	0.0	False
1382.213	0.0	2Suff RealStemNW	25	1382213	decisfully	0.0	1.0	False
1383.721	0.0	2Suff Composite	23	1383721	satirical	1.0	0.0	False
1385.039	0.0	2Suff w/o Lat.	22	1385039	regrettably	1.0	0.0	False
1386.047	0.0	2Suff w/o Lat.	22	1386047	intensively	1.0	0.0	False
1387.156	0.0	2Suff PseudoStemNW	24	1387156	nerbousness	0.0	1.0	False
1388.698	0.0	1Suff w/o Lat.	12	1388698	stealthy	1.0	0.0	False
1390.007	0.0	0Suff w/o Lat.	2	1390007	health	1.0	0.0	False
1392.191	0.0	2Suff RealStemNW	25	1392191	awively	0.0	1.0	False
1393.249	0.0	2Suff w/o Lat.	22	1393249	confessional	1.0	0.0	False
1394.416	0.0	2Suff w/o Lat.	22	1394416	marketability	1.0	0.0	False
1396.134	0.0	0Suff w/o Lat.	2	1396134	time	1.0	0.0	False
1397.359	0.0	1Suff RealStemNW	15	1397359	nervate	0.0	1.0	False
1398.359	0.0	2Suff w/o Lat.	22	1398359	relatively	1.0	0.0	False
1399.818	0.0	0Suff w/o Lat.	2	1399818	season	1.0	0.0	False
1400.818	0.0	2Suff Composite	23	1400818	futuristic	1.0	0.0	False
1402.361	0.0	2Suff w/o Lat.	22	1402361	occasionally	1.0		False
1404.77	0.0	1Suff PseudoStemNW	14	1404770	falumful	0.0	1.0	False
1406.228	0.0	2Suff w/o Lat.	22	1406228	racially	1.0	0.0	False
1407.304	0.0	2Suff w/o Lat.	22	1407304	glorification	1.0	0.0	False
1408.521	0.0	2Suff w/o Lat.	22	1408521	painlessly	1.0	0.0	False
1409.529	0.0	2Suff w/o Lat.	22	1409529	hopelessness	1.0	0.0	False
1410.488	0.0	0Suff w/o Lat.	2	1410488	provoke	1.0	0.0	False
1411.53	0.0	0Suff NW	4	1411530	eant	0.0	1.0	False
1412.622	0.0	1Suff w/o Lat.	12	1412622	notify	1.0	0.0	False
1413.639	0.0	2Suff w/o Lat.	22	1413639	relational	1.0	0.0	False
