onset	duration	trial_type	value	sample	stimulus	is_word	response	correct
133.01	0.0	0Suff w/o Lat.	2	133010	soul	1.0	0.0	False
135.41	0.0	0Suff w/o Lat.	2	135410	cheer	1.0	0.0	False
136.436	0.0	2Suff w/o Lat.	22	136436	triviality	1.0	0.0	False
137.711	0.0	0Suff w/o Lat.	2	137711	harm	1.0	0.0	False
138.628	0.0	2Suff PseudoStemNW	24	138628	utefully	0.0	1.0	False
139.862	0.0	2Suff RealStemNW	25	139862	guiltioner	0.0	1.0	False
141.187	0.0	1Suff w/o Lat.	12	141187	decisive	1.0	0.0	False
142.387	0.0	2Suff w/ Lat.	21	142387	extensively	1.0	0.0	False
143.271	0.0	2Suff RealStemNW	25	143271	assassinfully	0.0	1.0	False
145.322	0.0	1Suff RealStemNW	15	145322	differify	0.0	1.0	False
146.38	0.0	2Suff PseudoStemNW	24	146380	affallation	0.0	0.0	True
147.597	0.0	2Suff PseudoStemNW	24	147597	stumiality	0.0	1.0	False
149.656	0.0	2Suff w/o Lat.	22	149656	originality	1.0	0.0	False
150.59	0.0	1Suff w/o Lat.	12	150590	ethical	1.0	0.0	False
151.482	0.0	1Suff w/o Lat.	12	151482	heroic	1.0	0.0	False
152.324	0.0	2Suff Composite	23	152324	revitalization	1.0	1.0	True
153.783	0.0	2Suff PseudoStemNW	24	153783	perburbation	0.0	1.0	False
155.7	0.0	0Suff w/o Lat.	2	155700	confess	1.0	0.0	False
156.7	0.0	1Suff RealStemNW	15	156700	extensful	0.0	1.0	False
158.201	0.0	1Suff w/o Lat.	12	158201	designate	1.0	0.0	False
160.185	0.0	1Suff w/ Lat.	11	160185	extensive	1.0	0.0	False
161.068	0.0	1Suff w/o Lat.	12	161068	harmless	1.0	0.0	False
162.002	0.0	1Suff w/o Lat.	12	162002	difference	1.0	0.0	False
162.91	0.0	0Suff NW	4	162910	pavediad	0.0	1.0	False
164.261	0.0	1Suff PseudoStemNW	14	164261	lenctional	0.0	1.0	False
165.603	0.0	2Suff w/ Lat.	21	165603	persistently	1.0	0.0	False
166.795	0.0	0Suff w/o Lat.	2	166795	speed	1.0	0.0	False
167.687	0.0	1Suff w/o Lat.	12	167687	timely	1.0	0.0	False
168.562	0.0	2Suff w/o Lat.	22	168562	successfully	1.0	0.0	False
169.596	0.0	2Suff w/o Lat.	22	169596	awfully	1.0	0.0	False
170.554	0.0	0Suff w/o Lat.	2	170554	educate	1.0	0.0	False
171.521	0.0	1Suff RealStemNW	15	171521	forgetive	0.0	0.0	True
172.688	0.0	2Suff RealStemNW	25	172688	satirally	0.0	0.0	True
173.981	0.0	2Suff w/ Lat.	21	173981	conceptually	1.0	0.0	False
175.064	0.0	0Suff w/o Lat.	2	175064	design	1.0	0.0	False
176.315	0.0	2Suff w/o Lat.	22	176315	forgetfulness	1.0	0.0	False
177.332	0.0	2Suff Composite	23	177332	confederation	1.0	0.0	False
178.357	0.0	2Suff PseudoStemNW	24	178357	dehonitive	0.0	0.0	True
180.341	0.0	2Suff RealStemNW	25	180341	relatifiable	0.0	1.0	False
182.508	0.0	2Suff PseudoStemNW	24	182508	inshemmation	0.0	1.0	False
183.917	0.0	2Suff PseudoStemNW	24	183917	devesugmental	0.0	1.0	False
184.992	0.0	0Suff w/o Lat.	2	184992	success	1.0	0.0	False
185.926	0.0	0Suff w/o Lat.	2	185926	isolate	1.0	0.0	False
186.834	0.0	0Suff NW	4	186834	wroty	0.0	1.0	False
188.227	0.0	2Suff w/o Lat.	22	188227	restlessness	1.0	0.0	False
189.202	0.0	0Suff w/ Lat.	1	189202	predict	1.0	0.0	False
190.085	0.0	2Suff w/ Lat.	21	190085	impressionism	1.0	0.0	False
191.211	0.0	1Suff RealStemNW	15	191211	periodal	0.0	0.0	True
192.369	0.0	0Suff NW	4	192369	analk	0.0	1.0	False
193.837	0.0	2Suff w/o Lat.	22	193837	sleepily	1.0	0.0	False
194.712	0.0	2Suff w/o Lat.	22	194712	believably	1.0	0.0	False
195.604	0.0	1Suff w/o Lat.	12	195604	magnetic	1.0	0.0	False
196.571	0.0	1Suff RealStemNW	15	196571	intensful	0.0	0.0	True
197.454	0.0	2Suff PseudoStemNW	24	197454	peadership	0.0	1.0	False
199.305	0.0	2Suff RealStemNW	25	199305	dramationist	0.0	0.0	True
201.114	0.0	2Suff Composite	23	201114	dramatization	1.0	0.0	False
202.173	0.0	2Suff RealStemNW	25	202173	educatality	0.0	0.0	True
203.248	0.0	2Suff w/o Lat.	22	203248	relationship	1.0	0.0	False
204.265	0.0	1Suff w/o Lat.	12	204265	hopeless	1.0	0.0	False
205.132	0.0	0Suff w/o Lat.	2	205132	order	1.0	0.0	False
205.957	0.0	0Suff w/o Lat.	2	205957	persuade	1.0	0.0	False
206.882	0.0	0Suff NW	4	206882	pipsist	0.0	1.0	False
208.183	0.0	0Suff NW	4	208183	devade	0.0	0.0	True
209.166	0.0	2Suff Composite	23	209166	utilization	1.0	0.0	False
210.133	0.0	2Suff w/o Lat.	22	210133	fatalist	1.0	0.0	False
211.175	0.0	1Suff PseudoStemNW	14	211175	etilor	0.0	1.0	False
212.351	0.0	2Suff w/o Lat.	22	212351	polarity	1.0	0.0	False
213.526	0.0	2Suff PseudoStemNW	24	213526	restittably	0.0	1.0	False
215.093	0.0	2Suff w/o Lat.	22	215093	graciously	1.0	0.0	False
216.043	0.0	0Suff NW	4	216043	hyth	0.0	1.0	False
217.419	0.0	2Suff RealStemNW	25	217419	differalism	0.0	0.0	True
218.811	0.0	0Suff NW	4	218811	perburve	0.0	1.0	False
220.111	0.0	2Suff w/o Lat.	22	220111	idealistic	1.0	0.0	False
221.153	0.0	2Suff w/o Lat.	22	221153	thickener	1.0	0.0	False
222.454	0.0	0Suff w/o Lat.	2	222454	intense	1.0	0.0	False
223.379	0.0	1Suff PseudoStemNW	14	223379	snightful	0.0	1.0	False
224.621	0.0	0Suff NW	4	224621	cunerogy	0.0	1.0	False
226.138	0.0	2Suff RealStemNW	25	226138	glorliness	0.0	1.0	False
227.189	0.0	2Suff w/o Lat.	22	227189	editorship	1.0	0.0	False
228.389	0.0	2Suff PseudoStemNW	24	228389	ictressionism	0.0	1.0	False
229.614	0.0	2Suff w/ Lat.	21	229614	affectionate	1.0	0.0	False
230.673	0.0	2Suff w/o Lat.	22	230673	mythically	1.0	0.0	False
231.548	0.0	0Suff NW	4	231548	eltene	0.0	1.0	False
232.674	0.0	0Suff NW	4	232674	fleep	0.0	0.0	True
233.582	0.0	2Suff w/o Lat.	22	233582	relatively	1.0	0.0	False
234.399	0.0	2Suff RealStemNW	25	234399	impressliness	0.0	0.0	True
235.383	0.0	1Suff PseudoStemNW	14	235383	pavediadist	0.0	1.0	False
236.625	0.0	1Suff PseudoStemNW	14	236625	eseretion	0.0	1.0	False
237.867	0.0	0Suff NW	4	237867	uspasion	0.0	1.0	False
238.934	0.0	0Suff NW	4	238934	sork	0.0	1.0	False
240.268	0.0	2Suff w/o Lat.	22	240268	isolationism	1.0	0.0	False
242.268	0.0	2Suff PseudoStemNW	24	242268	uspasionally	0.0	1.0	False
243.352	0.0	1Suff w/o Lat.	12	243352	thicken	1.0	0.0	False
244.277	0.0	1Suff w/o Lat.	12	244277	provocative	1.0	0.0	False
245.227	0.0	1Suff w/o Lat.	12	245227	periodic	1.0	0.0	False
246.136	0.0	0Suff NW	4	246136	thiend	0.0	1.0	False
247.295	0.0	1Suff PseudoStemNW	14	247295	worchless	0.0	1.0	False
248.403	0.0	1Suff w/o Lat.	12	248403	worthless	1.0	0.0	False
249.329	0.0	1Suff PseudoStemNW	14	249329	affallion	0.0	1.0	False
251.204	0.0	2Suff Composite	23	251204	allegation	1.0	0.0	False
252.08	0.0	0Suff NW	4	252080	isotent	0.0	0.0	True
253.13	0.0	2Suff Composite	23	253130	deterministic	1.0	0.0	False
254.172	0.0	0Suff w/o Lat.	2	254172	base	1.0	0.0	False
255.164	0.0	2Suff PseudoStemNW	24	255164	pinonical	0.0	0.0	True
256.706	0.0	1Suff PseudoStemNW	14	256706	concolerable	0.0	1.0	False
258.165	0.0	2Suff PseudoStemNW	24	258165	hodelessness	0.0	0.0	True
259.89	0.0	0Suff w/o Lat.	2	259890	essence	1.0	0.0	False
260.774	0.0	2Suff w/o Lat.	22	260774	hopelessness	1.0	0.0	False
261.607	0.0	1Suff w/o Lat.	12	261607	adaptable	1.0	0.0	False
262.841	0.0	2Suff RealStemNW	25	262841	orderionist	0.0	0.0	True
264.333	0.0	0Suff w/o Lat.	2	264333	soft	1.0	0.0	False
265.184	0.0	2Suff Composite	23	265184	militarization	1.0	0.0	False
266.692	0.0	2Suff w/o Lat.	22	266692	materialistic	1.0	0.0	False
267.768	0.0	1Suff PseudoStemNW	14	267768	degorate	0.0	0.0	True
268.826	0.0	0Suff NW	4	268826	coul	0.0	1.0	False
270.16	0.0	2Suff w/o Lat.	22	270160	partially	1.0	0.0	False
271.027	0.0	2Suff w/o Lat.	22	271027	fatality	1.0	0.0	False
271.877	0.0	0Suff w/o Lat.	2	271877	execute	1.0	0.0	False
272.778	0.0	2Suff RealStemNW	25	272778	directality	0.0	0.0	True
370.499	0.0	0Suff w/o Lat.	2	370499	peace	1.0	0.0	False
371.408	0.0	0Suff w/o Lat.	2	371408	delight	1.0	0.0	False
372.383	0.0	2Suff PseudoStemNW	24	372383	potarity	0.0		False
374.784	0.0	0Suff w/o Lat.	2	374784	pole	1.0	0.0	False
375.734	0.0	1Suff w/o Lat.	12	375734	glorify	1.0	0.0	False
376.735	0.0	0Suff NW	4	376735	reut	0.0	1.0	False
377.818	0.0	1Suff w/o Lat.	12	377818	manly	1.0	0.0	False
378.86	0.0	2Suff PseudoStemNW	24	378860	adstification	0.0	1.0	False
380.186	0.0	0Suff NW	4	380186	artlitack	0.0	1.0	False
381.244	0.0	2Suff PseudoStemNW	24	381244	orifadality	0.0	1.0	False
382.353	0.0	1Suff w/o Lat.	12	382353	seasonal	1.0	0.0	False
383.27	0.0	0Suff w/ Lat.	1	383270	progress	1.0	0.0	False
384.228	0.0	2Suff PseudoStemNW	24	384228	allidation	0.0	0.0	True
385.304	0.0	1Suff w/o Lat.	12	385304	glorious	1.0	0.0	False
386.171	0.0	1Suff w/o Lat.	12	386171	speedy	1.0	0.0	False
387.088	0.0	1Suff PseudoStemNW	14	387088	distawksive	0.0	1.0	False
388.146	0.0	2Suff w/o Lat.	22	388146	speedily	1.0	0.0	False
389.372	0.0	2Suff w/o Lat.	22	389372	mobilization	1.0	0.0	False
390.347	0.0	2Suff w/o Lat.	22	390347	thankfulness	1.0	0.0	False
391.322	0.0	1Suff RealStemNW	15	391322	provocatful	0.0	0.0	True
392.373	0.0	2Suff Composite	23	392373	inflammation	1.0	0.0	False
393.506	0.0	2Suff w/o Lat.	22	393506	periodical	1.0	0.0	False
394.765	0.0	1Suff RealStemNW	15	394765	financeic	0.0	1.0	False
396.516	0.0	2Suff w/o Lat.	22	396516	transitional	1.0	0.0	False
397.541	0.0	2Suff Composite	23	397541	cannibalistic	1.0	0.0	False
399.325	0.0	2Suff w/ Lat.	21	399325	projectionist	1.0	0.0	False
400.667	0.0	2Suff w/o Lat.	22	400667	fastener	1.0	0.0	False
401.701	0.0	0Suff w/o Lat.	2	401701	out	1.0	0.0	False
402.584	0.0	2Suff w/o Lat.	22	402584	manliness	1.0	0.0	False
403.518	0.0	1Suff w/o Lat.	12	403518	profitable	1.0	0.0	False
404.485	0.0	0Suff w/o Lat.	2	404485	trivia	1.0	0.0	False
405.402	0.0	2Suff w/ Lat.	21	405402	mistakenly	1.0	0.0	False
406.402	0.0	0Suff w/o Lat.	2	406402	logic	1.0	0.0	False
407.344	0.0	2Suff w/o Lat.	22	407344	relativity	1.0	0.0	False
408.269	0.0	1Suff w/o Lat.	12	408269	peaceful	1.0	0.0	False
409.119	0.0	2Suff PseudoStemNW	24	409119	reratively	0.0		False
411.52	0.0	2Suff Composite	23	411520	categorical	1.0	0.0	False
412.629	0.0	0Suff NW	4	412629	chird	0.0	1.0	False
413.888	0.0	1Suff PseudoStemNW	14	413888	halkless	0.0	1.0	False
415.138	0.0	2Suff PseudoStemNW	24	415138	paftiality	0.0	1.0	False
416.413	0.0	2Suff w/o Lat.	22	416413	marginally	1.0	0.0	False
417.58	0.0	0Suff NW	4	417580	restit	0.0	1.0	False
418.956	0.0	1Suff w/o Lat.	12	418956	faithful	1.0	0.0	False
419.99	0.0	1Suff RealStemNW	15	419990	basly	0.0	1.0	False
421.815	0.0	0Suff NW	4	421815	concuch	0.0	0.0	True
423.357	0.0	0Suff NW	4	423357	desalk	0.0	1.0	False
424.599	0.0	2Suff PseudoStemNW	24	424599	miccessfully	0.0	1.0	False
425.733	0.0	1Suff w/o Lat.	12	425733	logical	1.0	0.0	False
426.65	0.0	1Suff RealStemNW	15	426650	exhaustful	0.0	0.0	True
427.867	0.0	0Suff NW	4	427867	vimid	0.0	0.0	True
428.834	0.0	2Suff PseudoStemNW	24	428834	vefation	0.0	1.0	False
430.476	0.0	2Suff PseudoStemNW	24	430476	falumfilly	0.0	1.0	False
431.893	0.0	2Suff PseudoStemNW	24	431893	squasification	0.0	1.0	False
433.835	0.0	2Suff RealStemNW	25	433835	ritualional	0.0	0.0	True
434.927	0.0	2Suff w/o Lat.	22	434927	painfully	1.0	0.0	False
436.428	0.0	0Suff NW	4	436428	thash	0.0	1.0	False
437.67	0.0	1Suff RealStemNW	15	437670	marginic	0.0	1.0	False
439.145	0.0	0Suff w/o Lat.	2	439145	real	1.0	0.0	False
440.212	0.0	2Suff RealStemNW	25	440212	editerize	0.0	1.0	False
442.371	0.0	2Suff w/o Lat.	22	442371	competitively	1.0	0.0	False
443.463	0.0	0Suff w/o Lat.	2	443463	forget	1.0	0.0	False
444.347	0.0	2Suff RealStemNW	25	444347	aimiously	0.0	1.0	False
446.281	0.0	2Suff w/o Lat.	22	446281	wakefulness	1.0	0.0	False
447.581	0.0	0Suff w/ Lat.	1	447581	concept	1.0	0.0	False
448.573	0.0	2Suff RealStemNW	25	448573	confessality	0.0	1.0	False
450.407	0.0	2Suff w/o Lat.	22	450407	provocatively	1.0	0.0	False
451.899	0.0	0Suff NW	4	451899	stumia	0.0	1.0	False
453.158	0.0	0Suff w/o Lat.	2	453158	origin	1.0	0.0	False
454.142	0.0	0Suff w/o Lat.	2	454142	hope	1.0	0.0	False
455.009	0.0	0Suff NW	4	455009	prebit	0.0	1.0	False
456.192	0.0	1Suff RealStemNW	15	456192	isolatate	0.0	0.0	True
457.193	0.0	0Suff NW	4	457193	prowert	0.0	1.0	False
458.943	0.0	2Suff RealStemNW	25	458943	deadionist	0.0	1.0	False
460.419	0.0	2Suff RealStemNW	25	460419	notural	0.0	1.0	False
461.786	0.0	1Suff w/o Lat.	12	461786	different	1.0	0.0	False
462.736	0.0	2Suff RealStemNW	25	462736	fasticly	0.0	0.0	True
463.745	0.0	1Suff RealStemNW	15	463745	persistify	0.0		False
466.154	0.0	0Suff w/o Lat.	2	466154	dead	1.0	0.0	False
467.104	0.0	1Suff RealStemNW	15	467104	mistaker	0.0	0.0	True
468.579	0.0	2Suff PseudoStemNW	24	468579	mosimization	0.0	1.0	False
470.105	0.0	2Suff w/o Lat.	22	470105	editorial	1.0	0.0	False
471.264	0.0	1Suff PseudoStemNW	14	471264	urmerly	0.0	1.0	False
472.431	0.0	2Suff RealStemNW	25	472431	hopeively	0.0	1.0	False
474.023	0.0	2Suff w/o Lat.	22	474023	seasonally	1.0	0.0	False
475.065	0.0	0Suff w/o Lat.	2	475065	aim	1.0	0.0	False
475.973	0.0	2Suff w/o Lat.	22	475973	decisiveness	1.0	0.0	False
477.09	0.0	1Suff PseudoStemNW	14	477090	thiendly	0.0	1.0	False
478.282	0.0	2Suff w/o Lat.	22	478282	musically	1.0	0.0	False
479.266	0.0	2Suff PseudoStemNW	24	479266	stumialize	0.0	0.0	True
480.441	0.0	0Suff NW	4	480441	steadth	0.0	1.0	False
482.242	0.0	0Suff w/o Lat.	2	482242	develop	1.0	0.0	False
483.159	0.0	2Suff Composite	23	483159	stratification	1.0	0.0	False
484.459	0.0	0Suff NW	4	484459	miccess	0.0	0.0	True
486.818	0.0	0Suff NW	4	486818	tuty	0.0	1.0	False
488.185	0.0	2Suff w/ Lat.	21	488185	progressively	1.0	0.0	False
489.252	0.0	0Suff NW	4	489252	peece	0.0	1.0	False
490.444	0.0	2Suff PseudoStemNW	24	490444	distawksively	0.0	1.0	False
491.578	0.0	2Suff w/o Lat.	22	491578	polarize	1.0	0.0	False
492.762	0.0	2Suff w/o Lat.	22	492762	outwardly	1.0	0.0	False
493.912	0.0	2Suff w/o Lat.	22	493912	rhythmically	1.0	0.0	False
495.971	0.0	0Suff w/o Lat.	2	495971	family	1.0	0.0	False
497.022	0.0	2Suff PseudoStemNW	24	497022	nerbously	0.0	1.0	False
498.405	0.0	2Suff RealStemNW	25	498405	sleepery	0.0	0.0	True
500.172	0.0	2Suff Composite	23	500172	amplification	1.0	0.0	False
501.223	0.0	1Suff w/o Lat.	12	501223	addition	1.0	0.0	False
502.131	0.0	0Suff w/o Lat.	2	502131	add	1.0	0.0	False
503.015	0.0	0Suff NW	4	503015	avold	0.0	0.0	True
504.057	0.0	2Suff w/o Lat.	22	504057	timeliness	1.0	0.0	False
504.966	0.0	0Suff w/o Lat.	2	504966	profit	1.0	0.0	False
505.808	0.0	0Suff w/o Lat.	2	505808	decor	1.0	0.0	False
506.758	0.0	0Suff w/o Lat.	2	506758	lead	1.0	0.0	False
507.65	0.0	1Suff PseudoStemNW	14	507650	gulbsian	0.0	1.0	False
509.267	0.0	2Suff PseudoStemNW	24	509267	fleedily	0.0	1.0	False
510.601	0.0	2Suff RealStemNW	25	510601	editionate	0.0	1.0	False
511.993	0.0	2Suff w/o Lat.	22	511993	realistic	1.0	0.0	False
512.885	0.0	0Suff NW	4	512885	rhylph	0.0	1.0	False
513.993	0.0	0Suff NW	4	513993	headth	0.0	1.0	False
515.644	0.0	1Suff w/o Lat.	12	515644	original	1.0	0.0	False
516.678	0.0	0Suff w/o Lat.	2	516678	immune	1.0	0.0	False
612.507	0.0	1Suff PseudoStemNW	14	612507	awdition	0.0	1.0	False
613.591	0.0	0Suff NW	4	613591	musual	0.0	0.0	True
615.45	0.0	0Suff w/o Lat.	2	615450	valid	1.0	0.0	False
616.975	0.0	2Suff RealStemNW	25	616975	familiately	0.0	1.0	False
618.467	0.0	0Suff NW	4	618467	atrie	0.0	1.0	False
619.601	0.0	1Suff RealStemNW	15	619601	childory	0.0		False
621.993	0.0	1Suff w/o Lat.	12	621993	agreeable	1.0	0.0	False
622.919	0.0	2Suff PseudoStemNW	24	622919	headthily	0.0	1.0	False
624.227	0.0	1Suff w/o Lat.	12	624227	assassinate	1.0	0.0	False
625.419	0.0	0Suff NW	4	625419	mevion	0.0	1.0	False
626.62	0.0	0Suff w/o Lat.	2	626620	rhythm	1.0	0.0	False
627.887	0.0	2Suff w/o Lat.	22	627887	fatally	1.0	0.0	False
629.137	0.0	2Suff w/o Lat.	22	629137	hopefully	1.0	0.0	False
630.087	0.0	1Suff w/o Lat.	12	630087	orderly	1.0	0.0	False
631.096	0.0	0Suff NW	4	631096	distawks	0.0	1.0	False
632.196	0.0	2Suff PseudoStemNW	24	632196	snoughtlessly	0.0	1.0	False
633.589	0.0	0Suff w/o Lat.	2	633589	margin	1.0	0.0	False
634.614	0.0	0Suff w/o Lat.	2	634614	stealth	1.0	0.0	False
635.672	0.0	2Suff PseudoStemNW	24	635672	steadthily	0.0	1.0	False
637.323	0.0	2Suff w/o Lat.	22	637323	glorification	1.0	0.0	False
638.59	0.0	2Suff RealStemNW	25	638590	forgetiveness	0.0	0.0	True
639.699	0.0	2Suff PseudoStemNW	24	639699	concuchualize	0.0	1.0	False
641.324	0.0	2Suff PseudoStemNW	24	641324	prebitably	0.0	0.0	True
642.325	0.0	1Suff w/o Lat.	12	642325	believable	1.0	0.0	False
643.241	0.0	0Suff w/o Lat.	2	643241	ideal	1.0	0.0	False
644.058	0.0	1Suff PseudoStemNW	14	644058	prebitable	0.0	0.0	True
646.184	0.0	2Suff w/o Lat.	22	646184	usefully	1.0	0.0	False
647.201	0.0	1Suff RealStemNW	15	647201	familior	0.0	1.0	False
648.618	0.0	2Suff w/o Lat.	22	648618	intensively	1.0	0.0	False
649.627	0.0	2Suff RealStemNW	25	649627	vitalilessly	0.0	0.0	True
651.111	0.0	0Suff w/o Lat.	2	651111	man	1.0	0.0	False
652.628	0.0	1Suff w/o Lat.	12	652628	architecture	1.0	0.0	False
654.095	0.0	1Suff PseudoStemNW	14	654095	falal	0.0	1.0	False
655.645	0.0	1Suff w/o Lat.	12	655645	basic	1.0	0.0	False
656.554	0.0	1Suff w/o Lat.	12	656554	furious	1.0	0.0	False
657.471	0.0	1Suff w/o Lat.	12	657471	familiar	1.0	0.0	False
658.296	0.0	2Suff PseudoStemNW	24	658296	sorkener	0.0	1.0	False
659.455	0.0	2Suff w/o Lat.	22	659455	differential	1.0	0.0	False
660.305	0.0	1Suff PseudoStemNW	14	660305	paftial	0.0	1.0	False
661.514	0.0	1Suff RealStemNW	15	661514	educatate	0.0	0.0	True
662.339	0.0	2Suff RealStemNW	25	662339	easery	0.0	1.0	False
664.098	0.0	1Suff w/o Lat.	12	664098	nervous	1.0	0.0	False
665.173	0.0	1Suff PseudoStemNW	14	665173	betiecable	0.0	1.0	False
666.44	0.0	1Suff w/o Lat.	12	666440	idealize	1.0	0.0	False
667.466	0.0	0Suff NW	4	667466	degor	0.0	1.0	False
668.724	0.0	0Suff w/o Lat.	2	668724	awe	1.0	0.0	False
669.733	0.0	2Suff w/o Lat.	22	669733	familiarity	1.0	0.0	False
670.967	0.0	0Suff w/ Lat.	1	670967	project	1.0	0.0	False
671.784	0.0	2Suff RealStemNW	25	671784	subjectfully	0.0	0.0	True
673.217	0.0	0Suff NW	4	673217	manfin	0.0	1.0	False
674.876	0.0	0Suff NW	4	674876	provame	0.0	1.0	False
676.01	0.0	1Suff w/o Lat.	12	676010	painless	1.0	0.0	False
676.969	0.0	1Suff w/o Lat.	12	676969	essential	1.0	0.0	False
677.919	0.0	0Suff NW	4	677919	rerard	0.0	1.0	False
679.161	0.0	0Suff w/o Lat.	2	679161	fury	1.0	0.0	False
680.086	0.0	0Suff w/o Lat.	2	680086	assassin	1.0	0.0	False
681.011	0.0	1Suff w/o Lat.	12	681011	leader	1.0	0.0	False
681.895	0.0	1Suff RealStemNW	15	681895	deadic	0.0	1.0	False
683.187	0.0	1Suff w/o Lat.	12	683187	thoughtful	1.0	0.0	False
684.146	0.0	0Suff NW	4	684146	frala	0.0	1.0	False
685.288	0.0	1Suff w/o Lat.	12	685288	director	1.0	0.0	False
686.205	0.0	2Suff PseudoStemNW	24	686205	onnensively	0.0	1.0	False
687.914	0.0	0Suff NW	4	687914	hode	0.0	0.0	True
688.872	0.0	2Suff RealStemNW	25	688872	restiousness	0.0	0.0	True
689.989	0.0	2Suff w/o Lat.	22	689989	stealthily	1.0	0.0	False
690.948	0.0	2Suff PseudoStemNW	24	690948	diructorship	0.0	1.0	False
692.107	0.0	0Suff w/o Lat.	2	692107	ease	1.0	0.0	False
693.182	0.0	1Suff w/o Lat.	12	693182	frightful	1.0	0.0	False
694.332	0.0	2Suff w/o Lat.	22	694332	trivialize	1.0	0.0	False
696.366	0.0	0Suff w/o Lat.	2	696366	sterile	1.0	0.0	False
697.2	0.0	0Suff NW	4	697200	bant	0.0	0.0	True
697.992	0.0	0Suff NW	4	697992	affall	0.0	1.0	False
699.234	0.0	2Suff w/o Lat.	22	699234	orderliness	1.0	0.0	False
700.226	0.0	1Suff w/o Lat.	12	700226	dramatic	1.0	0.0	False
701.159	0.0	0Suff w/o Lat.	2	701159	fast	1.0	0.0	False
702.101	0.0	2Suff w/o Lat.	22	702101	accidentally	1.0	0.0	False
703.16	0.0	1Suff RealStemNW	15	703160	painable	0.0	0.0	True
703.993	0.0	1Suff w/o Lat.	12	703993	regrettable	1.0	0.0	False
704.869	0.0	0Suff w/o Lat.	2	704869	agree	1.0	0.0	False
705.736	0.0	2Suff PseudoStemNW	24	705736	urhanization	0.0	1.0	False
707.353	0.0	2Suff RealStemNW	25	707353	soulively	0.0	1.0	False
708.753	0.0	0Suff NW	4	708753	sushect	0.0	1.0	False
709.937	0.0	2Suff PseudoStemNW	24	709937	carbisalistic	0.0	0.0	True
711.137	0.0	1Suff RealStemNW	15	711137	confessate	0.0	0.0	True
712.279	0.0	2Suff PseudoStemNW	24	712279	posicarization	0.0	1.0	False
714.163	0.0	0Suff NW	4	714163	arx	0.0	1.0	False
715.397	0.0	2Suff PseudoStemNW	24	715397	tutiously	0.0	0.0	True
716.622	0.0	2Suff PseudoStemNW	24	716622	pasklessly	0.0	1.0	False
717.806	0.0	2Suff PseudoStemNW	24	717806	avoldability	0.0	1.0	False
718.906	0.0	1Suff w/ Lat.	11	718906	instruction	1.0	0.0	False
719.915	0.0	2Suff RealStemNW	25	719915	accidentical	0.0	0.0	True
720.99	0.0	2Suff RealStemNW	25	720990	commutfully	0.0	1.0	False
722.491	0.0	0Suff w/o Lat.	2	722491	relate	1.0	0.0	False
723.891	0.0	0Suff NW	4	723891	figic	0.0	1.0	False
725.217	0.0	1Suff RealStemNW	15	725217	hopeable	0.0	1.0	False
726.617	0.0	2Suff w/o Lat.	22	726617	financially	1.0	0.0	False
727.859	0.0	2Suff w/o Lat.	22	727859	racially	1.0	0.0	False
728.868	0.0	1Suff w/o Lat.	12	728868	hopeful	1.0	0.0	False
729.86	0.0	0Suff w/o Lat.	2	729860	health	1.0	0.0	False
730.677	0.0	1Suff PseudoStemNW	14	730677	priueurant	0.0	1.0	False
731.735	0.0	2Suff w/o Lat.	22	731735	persuasively	1.0	0.0	False
732.986	0.0	2Suff w/o Lat.	22	732986	marketability	1.0	0.0	False
734.153	0.0	0Suff w/ Lat.	1	734153	persist	1.0	0.0	False
735.111	0.0	0Suff NW	4	735111	onnense	0.0	1.0	False
736.212	0.0	2Suff PseudoStemNW	24	736212	artlitackural	0.0	1.0	False
737.387	0.0	0Suff w/o Lat.	2	737387	material	1.0	0.0	False
738.554	0.0	1Suff PseudoStemNW	14	738554	ewsibal	0.0	1.0	False
739.621	0.0	1Suff PseudoStemNW	14	739621	wrotify	0.0	1.0	False
740.621	0.0	0Suff NW	4	740621	tipe	0.0	1.0	False
742.072	0.0	2Suff PseudoStemNW	24	742072	coppentator	0.0	1.0	False
743.247	0.0	0Suff NW	4	743247	rumic	0.0	1.0	False
745.215	0.0	2Suff RealStemNW	25	745215	poetally	0.0	1.0	False
747.082	0.0	1Suff RealStemNW	15	747082	logicic	0.0	1.0	False
748.641	0.0	0Suff NW	4	748641	helily	0.0	1.0	False
749.908	0.0	2Suff w/o Lat.	22	749908	functionally	1.0	0.0	False
751.291	0.0	1Suff w/o Lat.	12	751291	distinctive	1.0	0.0	False
752.25	0.0	2Suff PseudoStemNW	24	752250	chirdishness	0.0	0.0	True
753.35	0.0	2Suff w/o Lat.	22	753350	decisively	1.0	0.0	False
754.451	0.0	2Suff w/o Lat.	22	754451	ceremonially	1.0	0.0	False
845.095	0.0	1Suff PseudoStemNW	14	845095	cunerogial	0.0	1.0	False
846.371	0.0	0Suff w/o Lat.	2	846371	statistic	1.0	0.0	False
848.188	0.0	2Suff Composite	23	848188	autistic	1.0	1.0	True
849.363	0.0	2Suff PseudoStemNW	24	849363	cidlical	0.0	1.0	False
850.972	0.0	1Suff PseudoStemNW	14	850972	meabonal	0.0	1.0	False
852.422	0.0	0Suff NW	4	852422	chier	0.0	1.0	False
853.548	0.0	2Suff w/o Lat.	22	853548	decorator	1.0	0.0	False
854.681	0.0	1Suff w/o Lat.	12	854681	mythical	1.0	0.0	False
855.582	0.0	2Suff w/ Lat.	21	855582	subjectivity	1.0	0.0	False
856.549	0.0	0Suff NW	4	856549	detisms	0.0	1.0	False
857.957	0.0	1Suff w/o Lat.	12	857957	intensive	1.0	0.0	False
860.208	0.0	2Suff PseudoStemNW	24	860208	degorative	0.0	0.0	True
861.425	0.0	0Suff NW	4	861425	corzess	0.0	1.0	False
862.726	0.0	0Suff w/o Lat.	2	862726	pain	1.0	0.0	False
863.634	0.0	1Suff w/o Lat.	12	863634	editor	1.0	0.0	False
864.543	0.0	0Suff NW	4	864543	diruce	0.0	1.0	False
866.185	0.0	2Suff w/o Lat.	22	866185	leaderless	1.0	0.0	False
867.31	0.0	0Suff NW	4	867310	fars	0.0	1.0	False
869.078	0.0	2Suff w/o Lat.	22	869078	confessional	1.0	0.0	False
870.311	0.0	1Suff w/ Lat.	11	870311	predictable	1.0	0.0	False
871.412	0.0	2Suff w/o Lat.	22	871412	reasonably	1.0	0.0	False
872.37	0.0	1Suff PseudoStemNW	14	872370	appigental	0.0	1.0	False
873.462	0.0	1Suff w/o Lat.	12	873462	poetic	1.0	0.0	False
874.388	0.0	1Suff PseudoStemNW	14	874388	preguctable	0.0	1.0	False
876.096	0.0	1Suff PseudoStemNW	14	876096	restittable	0.0	1.0	False
877.472	0.0	0Suff NW	4	877472	coppent	0.0	1.0	False
878.656	0.0	1Suff w/o Lat.	12	878656	isolation	1.0	0.0	False
879.714	0.0	2Suff w/o Lat.	22	879714	harmlessly	1.0	0.0	False
880.689	0.0	2Suff w/o Lat.	22	880689	logically	1.0	0.0	False
881.59	0.0	0Suff NW	4	881590	pote	0.0	1.0	False
882.94	0.0	1Suff PseudoStemNW	14	882940	mowthure	0.0	1.0	False
884.049	0.0	0Suff w/o Lat.	2	884049	poet	1.0	0.0	False
884.974	0.0	0Suff NW	4	884974	paft	0.0	1.0	False
886.041	0.0	2Suff w/o Lat.	22	886041	notification	1.0	0.0	False
887.2	0.0	2Suff w/o Lat.	22	887200	assassination	1.0	0.0	False
888.15	0.0	2Suff Composite	23	888150	corporation	1.0	0.0	False
889.192	0.0	1Suff RealStemNW	15	889192	heroal	0.0	1.0	False
890.434	0.0	1Suff w/o Lat.	12	890434	musical	1.0	0.0	False
891.393	0.0	2Suff RealStemNW	25	891393	notifilessly	0.0	1.0	False
893.735	0.0	0Suff w/ Lat.	1	893735	extend	1.0	0.0	False
894.644	0.0	1Suff w/o Lat.	12	894644	notify	1.0	0.0	False
895.552	0.0	2Suff PseudoStemNW	24	895552	awditional	0.0	1.0	False
896.828	0.0	2Suff Composite	23	896828	mechanistic	1.0	0.0	False
897.87	0.0	2Suff w/o Lat.	22	897870	governmental	1.0	0.0	False
898.887	0.0	2Suff Composite	23	898887	sterilization	1.0	0.0	False
899.895	0.0	2Suff RealStemNW	25	899895	guardifiance	0.0	1.0	False
901.363	0.0	1Suff w/o Lat.	12	901363	wakeful	1.0	0.0	False
902.338	0.0	2Suff Composite	23	902338	perturbation	1.0	0.0	False
903.388	0.0	2Suff Composite	23	903388	quotation	1.0	0.0	False
904.422	0.0	0Suff NW	4	904422	ais	0.0	1.0	False
905.656	0.0	2Suff w/o Lat.	22	905656	delightfully	1.0	0.0	False
906.681	0.0	1Suff w/o Lat.	12	906681	successful	1.0	0.0	False
907.581	0.0	1Suff w/o Lat.	12	907581	childish	1.0	0.0	False
908.573	0.0	1Suff RealStemNW	15	908573	exhibitate	0.0	0.0	True
909.623	0.0	1Suff w/o Lat.	12	909623	useless	1.0	0.0	False
911.091	0.0	0Suff NW	4	911091	hesa	0.0	1.0	False
912.549	0.0	2Suff RealStemNW	25	912549	friendionist	0.0	0.0	True
914.567	0.0	0Suff w/ Lat.	1	914567	affirm	1.0	0.0	False
915.467	0.0	2Suff PseudoStemNW	24	915467	paftially	0.0	0.0	True
916.417	0.0	1Suff w/o Lat.	12	916417	delightful	1.0	0.0	False
917.593	0.0	1Suff w/o Lat.	12	917593	ritualist	1.0	0.0	False
918.584	0.0	0Suff NW	4	918584	itcress	0.0	1.0	False
919.701	0.0	2Suff w/o Lat.	22	919701	regrettably	1.0	0.0	False
920.685	0.0	1Suff PseudoStemNW	14	920685	hythical	0.0	0.0	True
922.294	0.0	2Suff PseudoStemNW	24	922294	stitilization	0.0	1.0	False
924.103	0.0	1Suff w/o Lat.	12	924103	forgetful	1.0	0.0	False
925.153	0.0	2Suff w/o Lat.	22	925153	nervousness	1.0	0.0	False
926.153	0.0	1Suff PseudoStemNW	14	926153	thashful	0.0	1.0	False
927.537	0.0	2Suff w/ Lat.	21	927537	affirmatively	1.0	0.0	False
928.663	0.0	0Suff NW	4	928663	gloo	0.0	1.0	False
929.855	0.0	2Suff RealStemNW	25	929855	transitality	0.0	0.0	True
932.18	0.0	2Suff w/o Lat.	22	932180	basically	1.0	0.0	False
933.047	0.0	2Suff PseudoStemNW	24	933047	banically	0.0	0.0	True
934.164	0.0	2Suff w/o Lat.	22	934164	ritualistic	1.0	0.0	False
935.156	0.0	2Suff w/o Lat.	22	935156	cheerfulness	1.0	0.0	False
936.357	0.0	2Suff w/o Lat.	22	936357	gracefully	1.0	0.0	False
937.274	0.0	2Suff RealStemNW	25	937274	awively	0.0	1.0	False
938.549	0.0	0Suff NW	4	938549	meabon	0.0	1.0	False
939.908	0.0	0Suff w/o Lat.	2	939908	triumph	1.0	0.0	False
941.075	0.0	2Suff RealStemNW	25	941075	periodally	0.0	0.0	True
942.042	0.0	2Suff PseudoStemNW	24	942042	prodfessively	0.0	1.0	False
943.759	0.0	1Suff w/o Lat.	12	943759	development	1.0	0.0	False
944.776	0.0	0Suff NW	4	944776	attossin	0.0	1.0	False
946.635	0.0	0Suff w/ Lat.	1	946635	exhibit	1.0	0.0	False
947.493	0.0	1Suff PseudoStemNW	14	947493	grameful	0.0	0.0	True
948.627	0.0	1Suff w/o Lat.	12	948627	polar	1.0	0.0	False
949.636	0.0	0Suff w/o Lat.	2	949636	ceremony	1.0	0.0	False
950.536	0.0	2Suff PseudoStemNW	24	950536	orifadator	0.0	1.0	False
951.695	0.0	0Suff NW	4	951695	devesug	0.0	1.0	False
952.745	0.0	2Suff RealStemNW	25	952745	substanceical	0.0	0.0	True
954.037	0.0	0Suff NW	4	954037	chotintic	0.0		False
956.438	0.0	1Suff w/o Lat.	12	956438	fatal	1.0	0.0	False
957.505	0.0	2Suff PseudoStemNW	24	957505	falality	0.0	0.0	True
958.605	0.0	2Suff PseudoStemNW	24	958605	segnonistic	0.0	1.0	False
959.947	0.0	1Suff w/o Lat.	12	959947	triumphant	1.0	0.0	False
961.231	0.0	2Suff RealStemNW	25	961231	polioner	0.0	1.0	False
963.448	0.0	0Suff w/o Lat.	2	963448	define	1.0	0.0	False
964.349	0.0	2Suff PseudoStemNW	24	964349	vimidation	0.0	1.0	False
966.658	0.0	2Suff RealStemNW	25	966658	characterional	0.0		False
969.05	0.0	1Suff RealStemNW	15	969050	successate	0.0	0.0	True
970.025	0.0	0Suff NW	4	970025	exufant	0.0	1.0	False
971.517	0.0	0Suff NW	4	971517	nerbs	0.0	1.0	False
973.16	0.0	2Suff Composite	23	973160	commutation	1.0	0.0	False
974.41	0.0	1Suff PseudoStemNW	14	974410	rumical	0.0	0.0	True
975.844	0.0	2Suff RealStemNW	25	975844	affirmatfully	0.0	1.0	False
977.461	0.0	0Suff NW	4	977461	subplence	0.0	1.0	False
979.42	0.0	0Suff NW	4	979420	gulbs	0.0	1.0	False
981.412	0.0	2Suff Composite	23	981412	organization	1.0	0.0	False
982.579	0.0	0Suff NW	4	982579	eserete	0.0	1.0	False
983.763	0.0	0Suff NW	4	983763	priueur	0.0	1.0	False
984.905	0.0	1Suff w/ Lat.	11	984905	mistaken	1.0	0.0	False
986.114	0.0	0Suff NW	4	986114	falget	0.0	1.0	False
987.289	0.0	2Suff RealStemNW	25	987289	futurional	0.0		False
989.69	0.0	2Suff w/o Lat.	22	989690	easily	1.0	0.0	False
990.607	0.0	2Suff w/o Lat.	22	990607	adaptability	1.0	0.0	False
991.682	0.0	0Suff w/o Lat.	2	991682	thought	1.0	0.0	False
992.591	0.0	1Suff w/ Lat.	11	992591	persistent	1.0	0.0	False
993.641	0.0	2Suff RealStemNW	25	993641	isolatliness	0.0	1.0	False
995.033	0.0	1Suff RealStemNW	15	995033	designion	0.0	0.0	True
1116.095	0.0	0Suff w/o Lat.	2	1116095	regret	1.0	0.0	False
1116.954	0.0	2Suff RealStemNW	25	1116954	subjectously	0.0	1.0	False
1118.804	0.0	0Suff NW	4	1118804	eshaums	0.0	1.0	False
1119.83	0.0	0Suff w/o Lat.	2	1119830	glory	1.0	0.0	False
1120.797	0.0	2Suff w/o Lat.	22	1120797	poetical	1.0	0.0	False
1121.905	0.0	2Suff RealStemNW	25	1121905	financeical	0.0	1.0	False
1123.973	0.0	1Suff w/o Lat.	12	1123973	idealist	1.0	0.0	False
1125.156	0.0	2Suff w/o Lat.	22	1125156	guiltiness	1.0		False
1127.565	0.0	2Suff w/o Lat.	22	1127565	originally	1.0	0.0	False
1128.424	0.0	2Suff w/o Lat.	22	1128424	thoughtlessly	1.0	0.0	False
1129.391	0.0	0Suff NW	4	1129391	wead	0.0	1.0	False
1130.591	0.0	2Suff w/o Lat.	22	1130591	cheerfully	1.0	0.0	False
1131.583	0.0	2Suff RealStemNW	25	1131583	moistantly	0.0	1.0	False
1132.734	0.0	0Suff NW	4	1132734	faulm	0.0	1.0	False
1134.159	0.0	0Suff w/o Lat.	2	1134159	period	1.0	0.0	False
1135.159	0.0	2Suff w/o Lat.	22	1135159	soulfully	1.0	0.0	False
1137.018	0.0	2Suff PseudoStemNW	24	1137018	chirdishly	0.0	1.0	False
1138.327	0.0	1Suff RealStemNW	15	1138327	leador	0.0	1.0	False
1139.486	0.0	1Suff w/o Lat.	12	1139486	friendly	1.0	0.0	False
1140.428	0.0	0Suff NW	4	1140428	ippune	0.0	1.0	False
1141.461	0.0	2Suff PseudoStemNW	24	1141461	worchlessness	0.0		False
1143.862	0.0	0Suff w/o Lat.	2	1143862	protect	1.0	0.0	False
1144.771	0.0	2Suff w/o Lat.	22	1144771	awfulness	1.0	0.0	False
1147.163	0.0	2Suff RealStemNW	25	1147163	decisfully	0.0	0.0	True
1148.263	0.0	0Suff NW	4	1148263	stoteld	0.0	1.0	False
1149.564	0.0	1Suff PseudoStemNW	14	1149564	rhylphic	0.0	0.0	True
1151.198	0.0	1Suff RealStemNW	15	1151198	realify	0.0	0.0	True
1152.098	0.0	2Suff w/o Lat.	22	1152098	substantially	1.0	0.0	False
1153.548	0.0	0Suff w/o Lat.	2	1153548	myth	1.0	0.0	False
1154.382	0.0	1Suff w/o Lat.	12	1154382	outward	1.0	0.0	False
1155.391	0.0	1Suff w/ Lat.	11	1155391	conceptual	1.0	0.0	False
1156.408	0.0	0Suff NW	4	1156408	nole	0.0	0.0	True
1157.308	0.0	1Suff w/o Lat.	12	1157308	gracious	1.0	0.0	False
1158.333	0.0	0Suff w/o Lat.	2	1158333	ritual	1.0	0.0	False
1159.2	0.0	0Suff w/o Lat.	2	1159200	believe	1.0	0.0	False
1160.067	0.0	2Suff PseudoStemNW	24	1160067	eetwardly	0.0		False
1162.459	0.0	1Suff PseudoStemNW	14	1162459	chotintical	0.0	0.0	True
1163.677	0.0	1Suff RealStemNW	15	1163677	developward	0.0	0.0	True
1164.527	0.0	1Suff RealStemNW	15	1164527	protectate	0.0	0.0	True
1165.369	0.0	2Suff PseudoStemNW	24	1165369	cunerogially	0.0	0.0	True
1166.494	0.0	2Suff PseudoStemNW	24	1166494	snightfully	0.0	0.0	True
1167.478	0.0	2Suff w/o Lat.	22	1167478	dramatically	1.0	0.0	False
1168.403	0.0	1Suff PseudoStemNW	14	1168403	affaidative	0.0	0.0	True
1170.37	0.0	2Suff w/o Lat.	22	1170370	familiarize	1.0	0.0	False
1171.212	0.0	2Suff PseudoStemNW	24	1171212	arfulness	0.0	0.0	True
1172.171	0.0	2Suff w/o Lat.	22	1172171	occasionally	1.0	0.0	False
1173.138	0.0	1Suff PseudoStemNW	14	1173138	fleedy	0.0	0.0	True
1174.063	0.0	2Suff w/o Lat.	22	1174063	healthily	1.0	0.0	False
1174.913	0.0	2Suff w/ Lat.	21	1174913	availability	1.0	0.0	False
1175.922	0.0	2Suff w/o Lat.	22	1175922	differently	1.0	0.0	False
1176.839	0.0	1Suff w/o Lat.	12	1176839	notable	1.0	0.0	False
1177.614	0.0	1Suff w/o Lat.	12	1177614	relative	1.0	0.0	False
1178.414	0.0	0Suff w/o Lat.	2	1178414	market	1.0	0.0	False
1179.24	0.0	1Suff PseudoStemNW	14	1179240	chierful	0.0	0.0	True
1180.007	0.0	0Suff w/o Lat.	2	1180007	moist	1.0	0.0	False
1180.898	0.0	0Suff NW	4	1180898	han	0.0	1.0	False
1182.257	0.0	1Suff w/o Lat.	12	1182257	soften	1.0	0.0	False
1183.191	0.0	1Suff w/o Lat.	12	1183191	partial	1.0	0.0	False
1184.108	0.0	0Suff w/o Lat.	2	1184108	globe	1.0	0.0	False
1184.95	0.0	2Suff PseudoStemNW	24	1184950	pafferential	0.0	1.0	False
1186.417	0.0	0Suff w/o Lat.	2	1186417	govern	1.0	0.0	False
1187.551	0.0	1Suff w/o Lat.	12	1187551	thankful	1.0	0.0	False
1188.409	0.0	2Suff RealStemNW	25	1188409	marketfulness	0.0	0.0	True
1190.06	0.0	2Suff RealStemNW	25	1190060	definerize	0.0	0.0	True
1191.06	0.0	0Suff NW	4	1191060	mosime	0.0	1.0	False
1192.902	0.0	2Suff PseudoStemNW	24	1192902	pasnetically	0.0	1.0	False
1194.469	0.0	1Suff w/o Lat.	12	1194469	trivial	1.0	0.0	False
1195.386	0.0	2Suff PseudoStemNW	24	1195386	chierfully	0.0	1.0	False
1196.587	0.0	2Suff w/o Lat.	22	1196587	aimlessly	1.0	0.0	False
1197.57	0.0	2Suff PseudoStemNW	24	1197570	detismsfully	0.0	1.0	False
1198.771	0.0	0Suff w/o Lat.	2	1198771	decide	1.0	0.0	False
1199.813	0.0	0Suff NW	4	1199813	mowth	0.0	1.0	False
1200.896	0.0	0Suff w/o Lat.	2	1200896	time	1.0	0.0	False
1201.705	0.0	1Suff w/o Lat.	12	1201705	persuasive	1.0	0.0	False
1202.805	0.0	0Suff NW	4	1202805	thack	0.0	1.0	False
1204.122	0.0	0Suff NW	4	1204122	wate	0.0	1.0	False
1205.448	0.0	1Suff w/ Lat.	11	1205448	impression	1.0	0.0	False
1206.39	0.0	2Suff RealStemNW	25	1206390	considerishly	0.0		False
1208.79	0.0	2Suff w/o Lat.	22	1208790	partiality	1.0	0.0	False
1209.666	0.0	2Suff PseudoStemNW	24	1209666	priueurantly	0.0	1.0	False
1210.958	0.0	2Suff RealStemNW	25	1210958	provocatfully	0.0	0.0	True
1212.175	0.0	1Suff w/o Lat.	12	1212175	considerable	1.0	0.0	False
1213.3	0.0	1Suff w/o Lat.	12	1213300	useful	1.0	0.0	False
1214.142	0.0	0Suff w/o Lat.	2	1214142	exhaust	1.0	0.0	False
1215.076	0.0	2Suff w/o Lat.	22	1215076	painlessly	1.0	0.0	False
1216.068	0.0	1Suff w/o Lat.	12	1216068	restless	1.0	0.0	False
1216.993	0.0	1Suff RealStemNW	15	1216993	marketless	0.0	0.0	True
1217.826	0.0	1Suff w/o Lat.	12	1217826	aimless	1.0	0.0	False
1218.677	0.0	2Suff w/o Lat.	22	1218677	fatalism	1.0	0.0	False
1219.619	0.0	1Suff RealStemNW	15	1219619	idealate	0.0	1.0	False
1221.919	0.0	2Suff w/o Lat.	22	1221919	commentator	1.0	0.0	False
1222.903	0.0	0Suff NW	4	1222903	awd	0.0	0.0	True
1223.778	0.0	1Suff w/o Lat.	12	1223778	cheerful	1.0	0.0	False
1225.395	0.0	2Suff w/o Lat.	22	1225395	softener	1.0	0.0	False
1226.362	0.0	0Suff NW	4	1226362	goult	0.0	1.0	False
1227.554	0.0	0Suff NW	4	1227554	esdybit	0.0	1.0	False
1228.671	0.0	2Suff PseudoStemNW	24	1228671	eltensively	0.0	1.0	False
1230.472	0.0	0Suff NW	4	1230472	pead	0.0	1.0	False
1231.822	0.0	2Suff RealStemNW	25	1231822	harmiously	0.0	0.0	True
1233.281	0.0	1Suff PseudoStemNW	14	1233281	nolify	0.0	0.0	True
1234.207	0.0	1Suff w/o Lat.	12	1234207	gleeful	1.0	1.0	True
1236.424	0.0	2Suff w/o Lat.	22	1236424	friendliness	1.0	0.0	False
1237.516	0.0	2Suff RealStemNW	25	1237516	painively	0.0	0.0	True
1238.533	0.0	2Suff Composite	23	1238533	vexation	1.0	0.0	False
1239.675	0.0	0Suff w/o Lat.	2	1239675	mobile	1.0	0.0	False
1240.642	0.0	1Suff w/ Lat.	11	1240642	projection	1.0	0.0	False
1241.575	0.0	2Suff w/o Lat.	22	1241575	relativism	1.0	0.0	False
1243.093	0.0	1Suff RealStemNW	15	1243093	nervate	0.0	1.0	False
1245.385	0.0	1Suff w/ Lat.	11	1245385	progressive	1.0	0.0	False
1246.352	0.0	1Suff w/o Lat.	12	1246352	awful	1.0	0.0	False
1247.302	0.0	1Suff w/o Lat.	12	1247302	decorate	1.0		False
1249.703	0.0	0Suff w/o Lat.	2	1249703	function	1.0		False
1252.104	0.0	0Suff NW	4	1252104	halk	0.0		False
1254.496	0.0	1Suff w/o Lat.	12	1254496	sterilize	1.0		False
1256.905	0.0	2Suff w/o Lat.	22	1256905	validation	1.0		False
1259.306	0.0	1Suff w/o Lat.	12	1259306	dramatize	1.0		False
1261.732	0.0	1Suff PseudoStemNW	14	1261732	sorken	0.0		False
1264.099	0.0	1Suff RealStemNW	15	1264099	conceptuic	0.0		False
1266.5	0.0	1Suff w/o Lat.	12	1266500	government	1.0	0.0	False
1290.716	0.0	0Suff NW	4	1290716	cossete	0.0	1.0	False
1292.324	0.0	2Suff RealStemNW	25	1292324	musicical	0.0	1.0	False
1293.983	0.0	0Suff NW	4	1293983	snight	0.0	0.0	True
1296.226	0.0	2Suff PseudoStemNW	24	1296226	tipeliness	0.0	1.0	False
1297.343	0.0	2Suff w/o Lat.	22	1297343	childishly	1.0	0.0	False
1298.868	0.0	0Suff w/o Lat.	2	1298868	drama	1.0	0.0	False
1299.835	0.0	1Suff w/o Lat.	12	1299835	fasten	1.0	0.0	False
1300.76	0.0	0Suff w/o Lat.	2	1300760	rest	1.0	0.0	False
1301.594	0.0	1Suff PseudoStemNW	14	1301594	mosimize	0.0	1.0	False
1302.786	0.0	2Suff w/o Lat.	22	1302786	architectural	1.0	0.0	False
1303.845	0.0	0Suff NW	4	1303845	ute	0.0	1.0	False
1304.862	0.0	1Suff RealStemNW	15	1304862	manen	0.0	1.0	False
1305.904	0.0	1Suff RealStemNW	15	1305904	peaceive	0.0	1.0	False
1307.704	0.0	1Suff PseudoStemNW	14	1307704	coppentate	0.0	1.0	False
1308.98	0.0	0Suff w/ Lat.	1	1308980	subject	1.0	0.0	False
1310.072	0.0	2Suff RealStemNW	25	1310072	revitalilessly	0.0	1.0	False
1311.08	0.0	2Suff PseudoStemNW	24	1311080	desalkation	0.0	1.0	False
1312.164	0.0	2Suff PseudoStemNW	24	1312164	pipplification	0.0	1.0	False
1313.481	0.0	0Suff NW	4	1313481	etil	0.0	1.0	False
1314.598	0.0	2Suff RealStemNW	25	1314598	globical	0.0	1.0	False
1315.798	0.0	1Suff w/o Lat.	12	1315798	guilty	1.0	0.0	False
1316.749	0.0	1Suff w/o Lat.	12	1316749	sleepy	1.0	0.0	False
1317.657	0.0	2Suff w/o Lat.	22	1317657	relational	1.0	0.0	False
1318.649	0.0	0Suff w/o Lat.	2	1318649	grace	1.0	0.0	False
1319.491	0.0	1Suff RealStemNW	15	1319491	poetal	0.0	0.0	True
1320.483	0.0	0Suff w/o Lat.	2	1320483	race	1.0	0.0	False
1321.325	0.0	0Suff NW	4	1321325	urmer	0.0	1.0	False
1322.384	0.0	1Suff RealStemNW	15	1322384	restable	0.0	1.0	False
1323.551	0.0	2Suff RealStemNW	25	1323551	quotfully	0.0	1.0	False
1324.668	0.0	0Suff w/o Lat.	2	1324668	comment	1.0	0.0	False
1325.66	0.0	1Suff w/o Lat.	12	1325660	deadly	1.0	0.0	False
1326.877	0.0	2Suff RealStemNW	25	1326877	seasonical	0.0	0.0	True
1327.827	0.0	1Suff w/o Lat.	12	1327827	exhaustive	1.0	0.0	False
1329.086	0.0	1Suff RealStemNW	15	1329086	assassinion	0.0	0.0	True
1330.153	0.0	1Suff PseudoStemNW	14	1330153	reration	0.0	1.0	False
1331.695	0.0	2Suff PseudoStemNW	24	1331695	deabonably	0.0	1.0	False
1332.845	0.0	2Suff w/o Lat.	22	1332845	magnetically	1.0	0.0	False
1334.012	0.0	1Suff w/o Lat.	12	1334012	considerate	1.0	0.0	False
1335.013	0.0	1Suff RealStemNW	15	1335013	ritualify	0.0	0.0	True
1336.013	0.0	2Suff RealStemNW	25	1336013	graceively	0.0	1.0	False
1338.222	0.0	0Suff NW	4	1338222	dehone	0.0	1.0	False
1339.331	0.0	0Suff w/ Lat.	1	1339331	instruct	1.0	0.0	False
1340.297	0.0	1Suff w/o Lat.	12	1340297	competitive	1.0	0.0	False
1341.223	0.0	0Suff w/o Lat.	2	1341223	season	1.0	0.0	False
1342.056	0.0	0Suff NW	4	1342056	affaid	0.0	1.0	False
1343.482	0.0	1Suff PseudoStemNW	14	1343482	essoilial	0.0	1.0	False
1344.557	0.0	1Suff w/o Lat.	12	1344557	moisture	1.0	0.0	False
1345.474	0.0	2Suff w/o Lat.	22	1345474	definitely	1.0	0.0	False
1346.449	0.0	2Suff RealStemNW	25	1346449	realional	0.0	1.0	False
1347.825	0.0	2Suff w/o Lat.	22	1347825	educational	1.0	0.0	False
1348.733	0.0	1Suff w/o Lat.	12	1348733	marketable	1.0	0.0	False
1349.684	0.0	2Suff w/o Lat.	22	1349684	directional	1.0	0.0	False
1350.676	0.0	1Suff w/o Lat.	12	1350676	ceremonial	1.0	0.0	False
1351.768	0.0	0Suff NW	4	1351768	ewsib	0.0	1.0	False
1352.801	0.0	2Suff RealStemNW	25	1352801	agreeally	0.0	1.0	False
1354.994	0.0	2Suff PseudoStemNW	24	1354994	gramiously	0.0	1.0	False
1356.694	0.0	0Suff w/o Lat.	2	1356694	thank	1.0	0.0	False
1357.619	0.0	0Suff w/o Lat.	2	1357619	architect	1.0	0.0	False
1358.695	0.0	1Suff w/o Lat.	12	1358695	confession	1.0	0.0	False
1359.587	0.0	1Suff w/o Lat.	12	1359587	soulful	1.0	0.0	False
1360.645	0.0	1Suff w/o Lat.	12	1360645	painful	1.0	0.0	False
1361.729	0.0	1Suff w/ Lat.	11	1361729	subjective	1.0	0.0	False
1362.679	0.0	2Suff PseudoStemNW	24	1362679	hodelessly	0.0	0.0	True
1364.397	0.0	1Suff w/o Lat.	12	1364397	materialist	1.0	0.0	False
1365.464	0.0	1Suff PseudoStemNW	14	1365464	prowertion	0.0	1.0	False
1366.847	0.0	2Suff w/o Lat.	22	1366847	furiously	1.0	0.0	False
1367.864	0.0	1Suff w/o Lat.	12	1367864	rhythmic	1.0	0.0	False
1368.915	0.0	0Suff NW	4	1368915	mistile	0.0	0.0	True
1369.898	0.0	1Suff PseudoStemNW	14	1369898	prodfessive	0.0	1.0	False
1371.124	0.0	2Suff w/o Lat.	22	1371124	notably	1.0	0.0	False
1371.966	0.0	2Suff RealStemNW	25	1371966	executarity	0.0	0.0	True
1373.308	0.0	1Suff RealStemNW	15	1373308	competitful	0.0	0.0	True
1374.225	0.0	0Suff w/o Lat.	2	1374225	guilt	1.0	0.0	False
1375.683	0.0	0Suff NW	4	1375683	paffer	0.0	1.0	False
1376.8	0.0	0Suff w/ Lat.	1	1376800	impress	1.0	0.0	False
1377.734	0.0	0Suff NW	4	1377734	pasnet	0.0	1.0	False
1378.834	0.0	1Suff w/o Lat.	12	1378834	financial	1.0	0.0	False
1379.81	0.0	2Suff RealStemNW	25	1379810	governancial	0.0	0.0	True
1381.935	0.0	2Suff RealStemNW	25	1381935	categorally	0.0	0.0	True
1382.902	0.0	2Suff w/o Lat.	22	1382902	childishness	1.0	0.0	False
1384.028	0.0	2Suff PseudoStemNW	24	1384028	otification	0.0	1.0	False
1385.22	0.0	1Suff RealStemNW	15	1385220	immunist	0.0	0.0	True
1386.195	0.0	0Suff w/ Lat.	1	1386195	affect	1.0	0.0	False
1387.07	0.0	1Suff w/o Lat.	12	1387070	thoughtless	1.0	0.0	False
1388.087	0.0	1Suff PseudoStemNW	14	1388087	tipely	0.0	1.0	False
1389.204	0.0	2Suff w/o Lat.	22	1389204	directorship	1.0	0.0	False
1390.346	0.0	0Suff w/o Lat.	2	1390346	sleep	1.0	0.0	False
1391.313	0.0	1Suff PseudoStemNW	14	1391313	orifadal	0.0	1.0	False
1392.514	0.0	1Suff w/o Lat.	12	1392514	protection	1.0	0.0	False
1393.556	0.0	1Suff PseudoStemNW	14	1393556	devadive	0.0	1.0	False
1394.823	0.0	0Suff NW	4	1394823	stitile	0.0	0.0	True
1396.073	0.0	2Suff PseudoStemNW	24	1396073	denboderation	0.0	1.0	False
1397.098	0.0	1Suff PseudoStemNW	14	1397098	fralatic	0.0	1.0	False
1398.274	0.0	1Suff RealStemNW	15	1398274	sterilist	0.0	0.0	True
1399.799	0.0	0Suff w/o Lat.	2	1399799	finance	1.0	0.0	False
1400.749	0.0	2Suff PseudoStemNW	24	1400749	gloofully	0.0	1.0	False
1402.141	0.0	2Suff w/o Lat.	22	1402141	triumphantly	1.0	0.0	False
1403.125	0.0	0Suff NW	4	1403125	essoils	0.0	0.0	True
1404.375	0.0	2Suff PseudoStemNW	24	1404375	esdybitionism	0.0	1.0	False
1405.559	0.0	1Suff PseudoStemNW	14	1405559	fleepy	0.0	1.0	False
1406.81	0.0	0Suff NW	4	1406810	moel	0.0	1.0	False
1408.477	0.0	0Suff NW	4	1408477	prodfess	0.0	1.0	False
1409.569	0.0	2Suff w/o Lat.	22	1409569	ethically	1.0	0.0	False
1410.686	0.0	0Suff NW	4	1410686	sest	0.0	1.0	False
1412.328	0.0	0Suff w/o Lat.	2	1412328	provoke	1.0	0.0	False
1413.47	0.0	2Suff RealStemNW	25	1413470	conceptuical	0.0	1.0	False
1415.054	0.0	0Suff NW	4	1415054	imoat	0.0	1.0	False
1416.046	0.0	2Suff w/o Lat.	22	1416046	essentially	1.0	0.0	False
1417.338	0.0	1Suff w/o Lat.	12	1417338	immunize	1.0	0.0	False
1418.313	0.0	1Suff w/o Lat.	12	1418313	marginal	1.0	0.0	False
1419.288	0.0	2Suff PseudoStemNW	24	1419288	cossetitively	0.0	1.0	False
1420.714	0.0	2Suff w/o Lat.	22	1420714	profitably	1.0	0.0	False
1421.823	0.0	1Suff w/o Lat.	12	1421823	occasional	1.0	0.0	False
1422.831	0.0	0Suff w/o Lat.	2	1422831	substance	1.0	0.0	False
1423.923	0.0	2Suff PseudoStemNW	24	1423923	imoatization	0.0	1.0	False
1425.057	0.0	1Suff w/o Lat.	12	1425057	validate	1.0	0.0	False
1426.241	0.0	2Suff RealStemNW	25	1426241	persistalism	0.0	1.0	False
1427.674	0.0	2Suff PseudoStemNW	24	1427674	ewsibally	0.0	1.0	False
1428.983	0.0	1Suff w/ Lat.	11	1428983	exhibition	1.0	0.0	False
1485.042	0.0	0Suff w/o Lat.	2	1485042	distinct	1.0	0.0	False
1485.976	0.0	1Suff RealStemNW	15	1485976	gleeive	0.0	1.0	False
1487.084	0.0	2Suff w/o Lat.	22	1487084	isolationist	1.0	0.0	False
1488.81	0.0	1Suff RealStemNW	15	1488810	agreeless	0.0	0.0	True
1490.402	0.0	1Suff PseudoStemNW	14	1490402	ramial	0.0	1.0	False
1491.827	0.0	2Suff w/o Lat.	22	1491827	considerately	1.0	0.0	False
1493.428	0.0	0Suff NW	4	1493428	worch	0.0	1.0	False
1494.553	0.0	1Suff RealStemNW	15	1494553	architectian	0.0	1.0	False
1496.154	0.0	2Suff w/o Lat.	22	1496154	peacefully	1.0	0.0	False
1497.129	0.0	0Suff w/o Lat.	2	1497129	nerve	1.0	0.0	False
1498.088	0.0	2Suff w/o Lat.	22	1498088	gleefully	1.0	0.0	False
1499.23	0.0	1Suff RealStemNW	15	1499230	furance	0.0	1.0	False
1500.513	0.0	2Suff w/o Lat.	22	1500513	nervously	1.0	0.0	False
1501.455	0.0	0Suff NW	4	1501455	concoler	0.0	1.0	False
1502.572	0.0	0Suff w/o Lat.	2	1502572	friend	1.0	0.0	False
1503.664	0.0	1Suff RealStemNW	15	1503664	thoughtive	0.0	1.0	False
1505.382	0.0	2Suff RealStemNW	25	1505382	familierage	0.0	1.0	False
1506.465	0.0	2Suff w/o Lat.	22	1506465	idealization	1.0	0.0	False
1507.782	0.0	2Suff w/o Lat.	22	1507782	developmental	1.0	0.0	False
1509.399	0.0	0Suff NW	4	1509399	eant	0.0	1.0	False
1510.45	0.0	1Suff PseudoStemNW	14	1510450	snoughtless	0.0	1.0	False
1511.942	0.0	1Suff RealStemNW	15	1511942	directar	0.0	1.0	False
1513.234	0.0	0Suff NW	4	1513234	grame	0.0	1.0	False
1514.384	0.0	1Suff w/o Lat.	12	1514384	accidental	1.0	0.0	False
1515.418	0.0	1Suff RealStemNW	15	1515418	wakeive	0.0	1.0	False
1516.935	0.0	0Suff NW	4	1516935	glibe	0.0	0.0	True
1517.885	0.0	2Suff w/o Lat.	22	1517885	leadership	1.0	0.0	False
1518.852	0.0	2Suff RealStemNW	25	1518852	persuasfully	0.0	1.0	False
1520.311	0.0	1Suff PseudoStemNW	14	1520311	arful	0.0	1.0	False
1521.336	0.0	2Suff PseudoStemNW	24	1521336	rerational	0.0	1.0	False
1522.47	0.0	2Suff PseudoStemNW	24	1522470	rerativity	0.0	1.0	False
1523.679	0.0	1Suff w/ Lat.	11	1523679	affirmative	1.0	0.0	False
1524.746	0.0	1Suff RealStemNW	15	1524746	soulive	0.0	1.0	False
1525.896	0.0	1Suff PseudoStemNW	14	1525896	nolable	0.0	1.0	False
1527.422	0.0	1Suff w/o Lat.	12	1527422	stealthy	1.0	0.0	False
1528.705	0.0	2Suff PseudoStemNW	24	1528705	thackener	0.0	1.0	False
1530.289	0.0	2Suff RealStemNW	25	1530289	predictator	0.0	1.0	False
1531.723	0.0	2Suff w/o Lat.	22	1531723	faithfully	1.0	0.0	False
1533.04	0.0	2Suff RealStemNW	25	1533040	marginical	0.0	1.0	False
1534.516	0.0	1Suff w/o Lat.	12	1534516	definite	1.0	0.0	False
1535.441	0.0	1Suff PseudoStemNW	14	1535441	wrotious	0.0	1.0	False
1536.558	0.0	0Suff w/o Lat.	2	1536558	glee	1.0	0.0	False
1537.967	0.0	2Suff Composite	23	1537967	satirical	1.0	0.0	False
1539.167	0.0	2Suff RealStemNW	25	1539167	decisishness	0.0	1.0	False
1540.842	0.0	1Suff w/o Lat.	12	1540842	reasonable	1.0	0.0	False
1541.884	0.0	1Suff RealStemNW	15	1541884	useive	0.0	1.0	False
1543.268	0.0	2Suff Composite	23	1543268	affectation	1.0	0.0	False
1544.477	0.0	1Suff PseudoStemNW	14	1544477	steadthy	0.0	1.0	False
1546.194	0.0	1Suff w/o Lat.	12	1546194	originate	1.0	0.0	False
1547.228	0.0	2Suff RealStemNW	25	1547228	peaceively	0.0	0.0	True
1548.386	0.0	0Suff NW	4	1548386	preguct	0.0	1.0	False
1549.428	0.0	2Suff w/o Lat.	22	1549428	considerably	1.0	0.0	False
1550.745	0.0	2Suff PseudoStemNW	24	1550745	thashfulness	0.0	1.0	False
1552.029	0.0	1Suff w/o Lat.	12	1552029	commentate	1.0	0.0	False
1553.53	0.0	1Suff PseudoStemNW	14	1553530	glibal	0.0	1.0	False
1554.83	0.0	2Suff w/o Lat.	22	1554830	gloriously	1.0	0.0	False
1555.914	0.0	0Suff NW	4	1555914	snought	0.0	1.0	False
1557.298	0.0	0Suff w/o Lat.	2	1557298	guard	1.0	0.0	False
1558.49	0.0	1Suff w/o Lat.	12	1558490	execution	1.0	0.0	False
1559.498	0.0	2Suff PseudoStemNW	24	1559498	hythically	0.0	1.0	False
1560.615	0.0	2Suff PseudoStemNW	24	1560615	pafleurization	0.0	1.0	False
1561.907	0.0	1Suff PseudoStemNW	14	1561907	eetward	0.0	1.0	False
1562.991	0.0	2Suff w/ Lat.	21	1562991	exhibitionism	1.0	0.0	False
1564.408	0.0	2Suff RealStemNW	25	1564408	relateness	0.0	0.0	True
1565.808	0.0	0Suff NW	4	1565808	manhet	0.0	1.0	False
1566.925	0.0	2Suff w/o Lat.	22	1566925	guardianship	1.0	0.0	False
1568.459	0.0	1Suff w/ Lat.	11	1568459	affection	1.0	0.0	False
1569.393	0.0	2Suff PseudoStemNW	24	1569393	watefulness	0.0	1.0	False
1570.652	0.0	2Suff RealStemNW	25	1570652	fatantly	0.0	0.0	True
1571.694	0.0	0Suff w/o Lat.	2	1571694	edit	1.0	0.0	False
1572.944	0.0	0Suff w/o Lat.	2	1572944	occasion	1.0	0.0	False
1573.894	0.0	2Suff RealStemNW	25	1573894	cheerability	0.0	1.0	False
1575.378	0.0	1Suff w/o Lat.	12	1575378	easy	1.0	0.0	False
1576.253	0.0	2Suff w/o Lat.	22	1576253	agreeably	1.0	0.0	False
1577.379	0.0	0Suff w/o Lat.	2	1577379	faith	1.0	0.0	False
1578.296	0.0	1Suff PseudoStemNW	14	1578296	sushective	0.0	1.0	False
1579.621	0.0	0Suff w/o Lat.	2	1579621	fright	1.0	0.0	False
1580.58	0.0	0Suff NW	4	1580580	betiece	0.0	1.0	False
1582.047	0.0	2Suff PseudoStemNW	24	1582047	deterfuristic	0.0	1.0	False
1583.781	0.0	1Suff w/o Lat.	12	1583781	mobilize	1.0	0.0	False
1584.839	0.0	2Suff RealStemNW	25	1584839	raceical	0.0	1.0	False
1586.181	0.0	1Suff PseudoStemNW	14	1586181	falumful	0.0	1.0	False
1587.24	0.0	1Suff PseudoStemNW	14	1587240	chansotion	0.0	1.0	False
1588.324	0.0	2Suff w/o Lat.	22	1588324	distinctively	1.0	1.0	True
1589.407	0.0	2Suff w/o Lat.	22	1589407	immunization	1.0	0.0	False
1590.741	0.0	1Suff RealStemNW	15	1590741	impressate	0.0	0.0	True
1592.158	0.0	0Suff NW	4	1592158	deabon	0.0	0.0	True
1593.142	0.0	2Suff RealStemNW	25	1593142	fatical	0.0	0.0	True
1594.576	0.0	0Suff w/ Lat.	1	1594576	avail	1.0	0.0	False
1595.784	0.0	1Suff PseudoStemNW	14	1595784	uteless	0.0	1.0	False
1596.885	0.0	1Suff RealStemNW	15	1596885	differious	0.0	1.0	False
1598.068	0.0	0Suff w/ Lat.	1	1598068	mistake	1.0	0.0	False
1599.044	0.0	1Suff w/o Lat.	12	1599044	transition	1.0	0.0	False
1600.394	0.0	2Suff w/o Lat.	22	1600394	statistically	1.0	0.0	False
1601.72	0.0	1Suff w/ Lat.	11	1601720	available	1.0	0.0	False
1602.653	0.0	2Suff Composite	23	1602653	canonical	1.0	0.0	False
1603.812	0.0	2Suff PseudoStemNW	24	1603812	snoughtfully	0.0	0.0	True
1605.371	0.0	1Suff w/o Lat.	12	1605371	education	1.0	0.0	False
1606.288	0.0	2Suff PseudoStemNW	24	1606288	concolerably	0.0	1.0	False
1608.263	0.0	2Suff PseudoStemNW	24	1608263	rhylphically	0.0	1.0	False
1609.455	0.0	1Suff RealStemNW	15	1609455	considerion	0.0	0.0	True
1610.597	0.0	1Suff w/o Lat.	12	1610597	global	1.0	0.0	False
1611.606	0.0	2Suff RealStemNW	25	1611606	immunability	0.0	1.0	False
1613.231	0.0	0Suff w/o Lat.	2	1613231	music	1.0	0.0	False
1614.232	0.0	2Suff w/o Lat.	22	1614232	protectionist	1.0	0.0	False
1615.357	0.0	1Suff PseudoStemNW	14	1615357	analkable	0.0	1.0	False
1616.407	0.0	1Suff PseudoStemNW	14	1616407	deabonable	0.0	1.0	False
1617.624	0.0	0Suff w/o Lat.	2	1617624	magnet	1.0	0.0	False
1618.616	0.0	2Suff RealStemNW	25	1618616	decorural	0.0	1.0	False
1619.733	0.0	1Suff w/o Lat.	12	1619733	guardian	1.0	0.0	False
1620.784	0.0	1Suff RealStemNW	15	1620784	instructate	0.0	1.0	False
1622.292	0.0	1Suff PseudoStemNW	14	1622292	uspasional	0.0	1.0	False
1623.46	0.0	0Suff NW	4	1623460	chansot	0.0	1.0	False
1624.635	0.0	2Suff w/ Lat.	21	1624635	predictably	1.0	1.0	True
1625.969	0.0	2Suff w/o Lat.	22	1625969	differentiate	1.0	0.0	False
1627.244	0.0	0Suff NW	4	1627244	girern	0.0	1.0	False
1628.378	0.0	1Suff RealStemNW	15	1628378	gracance	0.0	1.0	False
1629.536	0.0	0Suff NW	4	1629536	finiles	0.0	1.0	False
1630.878	0.0	2Suff Composite	23	1630878	simplification	1.0	0.0	False
1657.553	0.0	0Suff NW	4	1657553	pask	0.0	1.0	False
1658.804	0.0	2Suff RealStemNW	25	1658804	glorifilessly	0.0	1.0	False
1660.288	0.0	2Suff PseudoStemNW	24	1660288	mistilenly	0.0	1.0	False
1661.655	0.0	1Suff w/o Lat.	12	1661655	substantial	1.0	0.0	False
1662.788	0.0	2Suff RealStemNW	25	1662788	affectorship	0.0	1.0	False
1664.322	0.0	1Suff PseudoStemNW	14	1664322	orifadate	0.0	1.0	False
1665.381	0.0	1Suff PseudoStemNW	14	1665381	dehonite	0.0	1.0	False
1666.698	0.0	2Suff PseudoStemNW	24	1666698	instrovtional	0.0	1.0	False
1667.731	0.0	0Suff w/o Lat.	2	1667731	fate	1.0	0.0	False
1668.698	0.0	0Suff NW	4	1668698	fale	0.0	1.0	False
1669.84	0.0	1Suff RealStemNW	15	1669840	magnetal	0.0	1.0	False
1671.024	0.0	2Suff w/o Lat.	22	1671024	thoughtfully	1.0	0.0	False
1672.041	0.0	2Suff w/o Lat.	22	1672041	definitive	1.0	0.0	False
1673.075	0.0	0Suff w/o Lat.	2	1673075	use	1.0	0.0	False
1673.917	0.0	1Suff RealStemNW	15	1673917	polit	0.0	1.0	False
1675.017	0.0	0Suff w/o Lat.	2	1675017	compete	1.0	1.0	True
1676.434	0.0	2Suff PseudoStemNW	24	1676434	utelessness	0.0	1.0	False
1677.743	0.0	2Suff w/ Lat.	21	1677743	impressionist	1.0	0.0	False
1679.502	0.0	2Suff RealStemNW	25	1679502	dramatilessly	0.0	1.0	False
1681.569	0.0	1Suff PseudoStemNW	14	1681569	goulty	0.0	1.0	False
1682.603	0.0	2Suff w/o Lat.	22	1682603	deadliness	1.0	0.0	False
1684.178	0.0	1Suff PseudoStemNW	14	1684178	vimidate	0.0	1.0	False
1685.67	0.0	1Suff PseudoStemNW	14	1685670	hodeful	0.0	0.0	True
1686.996	0.0	2Suff w/o Lat.	22	1686996	hopelessly	1.0	0.0	False
1688.004	0.0	2Suff RealStemNW	25	1688004	manionist	0.0	1.0	False
1689.547	0.0	2Suff w/ Lat.	21	1689547	instructional	1.0	0.0	False
1690.555	0.0	2Suff PseudoStemNW	24	1690555	orifadally	0.0	1.0	False
1691.722	0.0	1Suff PseudoStemNW	14	1691722	fralatize	0.0	1.0	False
1693.531	0.0	0Suff NW	4	1693531	lenction	0.0	1.0	False
1694.623	0.0	0Suff w/o Lat.	2	1694623	worth	1.0	0.0	False
1695.765	0.0	2Suff w/o Lat.	22	1695765	frightfully	1.0	0.0	False
1696.79	0.0	2Suff Composite	23	1696790	characteristic	1.0	0.0	False
1697.799	0.0	2Suff RealStemNW	25	1697799	exhaustfully	0.0	0.0	True
1698.783	0.0	2Suff PseudoStemNW	24	1698783	chotintically	0.0	1.0	False
1700.133	0.0	2Suff Composite	23	1700133	biblical	1.0	0.0	False
1701.375	0.0	2Suff PseudoStemNW	24	1701375	lenctionally	0.0	1.0	False
1702.551	0.0	2Suff RealStemNW	25	1702551	projectliness	0.0	0.0	True
1703.884	0.0	2Suff Composite	23	1703884	vitalization	1.0	0.0	False
1705.21	0.0	0Suff w/o Lat.	2	1705210	differ	1.0	0.0	False
1706.243	0.0	1Suff PseudoStemNW	14	1706243	stumial	0.0	1.0	False
1707.585	0.0	2Suff Composite	23	1707585	futuristic	1.0	0.0	False
1708.811	0.0	1Suff PseudoStemNW	14	1708811	aisless	0.0	1.0	False
1709.919	0.0	2Suff RealStemNW	25	1709919	ailistic	0.0	1.0	False
1711.22	0.0	0Suff w/o Lat.	2	1711220	transit	1.0	0.0	False
1712.787	0.0	1Suff w/o Lat.	12	1712787	racial	1.0	0.0	False
1714.021	0.0	0Suff NW	4	1714021	rame	0.0	1.0	False
1715.471	0.0	1Suff RealStemNW	15	1715471	persuasful	0.0	1.0	False
1716.972	0.0	2Suff PseudoStemNW	24	1716972	pafferentiate	0.0	1.0	False
1718.364	0.0	2Suff w/o Lat.	22	1718364	executioner	1.0	0.0	False
1719.764	0.0	1Suff w/o Lat.	12	1719764	statistical	1.0	0.0	False
1720.673	0.0	0Suff w/o Lat.	2	1720673	child	1.0	0.0	False
1721.54	0.0	2Suff PseudoStemNW	24	1721540	comlomation	0.0	1.0	False
1722.932	0.0	1Suff PseudoStemNW	14	1722932	headthy	0.0	1.0	False
1725.191	0.0	2Suff RealStemNW	25	1725191	idealional	0.0	1.0	False
1726.625	0.0	2Suff PseudoStemNW	24	1726625	stoteldionist	0.0	1.0	False
1728.058	0.0	1Suff PseudoStemNW	14	1728058	subplencial	0.0	1.0	False
1729.1	0.0	1Suff PseudoStemNW	14	1729100	thacken	0.0	1.0	False
1730.342	0.0	2Suff w/ Lat.	21	1730342	conceptualize	1.0	0.0	False
1731.568	0.0	0Suff w/o Lat.	2	1731568	accident	1.0	0.0	False
1732.535	0.0	1Suff PseudoStemNW	14	1732535	girernment	0.0	1.0	False
1733.577	0.0	2Suff w/o Lat.	22	1733577	additional	1.0	0.0	False
1734.527	0.0	1Suff w/o Lat.	12	1734527	functional	1.0	0.0	False
1735.527	0.0	0Suff w/o Lat.	2	1735527	adapt	1.0	0.0	False
1736.436	0.0	2Suff RealStemNW	25	1736436	isolatmental	0.0	1.0	False
1737.545	0.0	0Suff NW	4	1737545	orifad	0.0	1.0	False
1738.72	0.0	1Suff w/o Lat.	12	1738720	graceful	1.0	0.0	False
1739.754	0.0	2Suff RealStemNW	25	1739754	fatalize	0.0	0.0	True
1740.929	0.0	2Suff PseudoStemNW	24	1740929	nerbousness	0.0	1.0	False
1742.304	0.0	0Suff w/o Lat.	2	1742304	ethic	1.0	0.0	False
1743.288	0.0	2Suff RealStemNW	25	1743288	materialional	0.0	1.0	False
1745.339	0.0	2Suff w/o Lat.	22	1745339	decorative	1.0	0.0	False
1746.414	0.0	0Suff w/o Lat.	2	1746414	thick	1.0	0.0	False
1747.381	0.0	1Suff PseudoStemNW	14	1747381	farsen	0.0	1.0	False
1748.731	0.0	2Suff w/o Lat.	22	1748731	designation	1.0	0.0	False
1749.765	0.0	0Suff NW	4	1749765	appigent	0.0	1.0	False
1750.932	0.0	2Suff w/o Lat.	22	1750932	moisturize	1.0	0.0	False
1752.841	0.0	1Suff PseudoStemNW	14	1752841	paskful	0.0	1.0	False
1754.075	0.0	2Suff PseudoStemNW	24	1754075	analkability	0.0	1.0	False
1755.158	0.0	0Suff w/o Lat.	2	1755158	part	1.0	0.0	False
1756.134	0.0	2Suff Composite	23	1756134	pasteurization	1.0	0.0	False
1757.617	0.0	2Suff PseudoStemNW	24	1757617	essoilially	0.0	1.0	False
1758.676	0.0	1Suff PseudoStemNW	14	1758676	imoatist	0.0	1.0	False
1759.818	0.0	2Suff w/o Lat.	22	1759818	globally	1.0	0.0	False
1760.727	0.0	1Suff RealStemNW	15	1760727	eany	0.0	1.0	False
1761.977	0.0	1Suff PseudoStemNW	14	1761977	diruction	0.0	1.0	False
1763.219	0.0	0Suff w/o Lat.	2	1763219	consider	1.0	0.0	False
1764.228	0.0	2Suff RealStemNW	25	1764228	believator	0.0	1.0	False
1765.737	0.0	0Suff NW	4	1765737	eet	0.0	1.0	False
1766.879	0.0	0Suff w/o Lat.	2	1766879	reason	1.0	0.0	False
1767.812	0.0	2Suff w/o Lat.	22	1767812	exhaustively	1.0	0.0	False
1769.204	0.0	0Suff w/o Lat.	2	1769204	note	1.0	0.0	False
1770.105	0.0	1Suff w/o Lat.	12	1770105	direction	1.0	0.0	False
1771.022	0.0	2Suff RealStemNW	25	1771022	leadantate	0.0		False
1773.431	0.0	0Suff NW	4	1773431	fleed	0.0	1.0	False
1775.048	0.0	1Suff w/o Lat.	12	1775048	realist	1.0	0.0	False
1776.156	0.0	1Suff w/o Lat.	12	1776156	healthy	1.0	0.0	False
1777.098	0.0	1Suff w/o Lat.	12	1777098	relation	1.0	0.0	False
1777.949	0.0	2Suff w/o Lat.	22	1777949	uselessness	1.0	0.0	False
1778.907	0.0	2Suff w/ Lat.	21	1778907	subjectively	1.0	0.0	False
1780.566	0.0	0Suff w/o Lat.	2	1780566	hero	1.0	0.0	False
1781.416	0.0	1Suff RealStemNW	15	1781416	availless	0.0	0.0	True
1782.55	0.0	0Suff w/o Lat.	2	1782550	direct	1.0	1.0	True
1784.001	0.0	0Suff NW	4	1784001	instrove	0.0	1.0	False
1785.101	0.0	2Suff PseudoStemNW	24	1785101	figically	0.0	1.0	False
1786.693	0.0	2Suff w/o Lat.	22	1786693	worthlessness	1.0	0.0	False
1788.168	0.0	0Suff w/o Lat.	2	1788168	wake	1.0	0.0	False
1789.085	0.0	2Suff w/o Lat.	22	1789085	originator	1.0	0.0	False
1790.227	0.0	1Suff RealStemNW	15	1790227	delightive	0.0	0.0	True
1792.145	0.0	1Suff RealStemNW	15	1792145	relatful	0.0	1.0	False
