onset	duration	trial_type	value	sample	stimulus	is_word	response	correct
87.693	0.0	2Suff w/o Lat.	22	87693	effortlessly	1.0	0.0	False
88.952	0.0	1Suff w/ Lat.	11	88952	conclusive	1.0	0.0	False
90.002	0.0	1Suff w/o Lat.	12	90002	industrial	1.0	0.0	False
90.952	0.0	1Suff w/o Lat.	12	90952	noticeable	1.0	0.0	False
91.952	0.0	1Suff w/o Lat.	12	91952	magical	1.0	0.0	False
93.028	0.0	1Suff RealStemNW	15	93028	fearive	0.0	1.0	False
94.278	0.0	1Suff w/o Lat.	12	94278	careless	1.0	0.0	False
95.128	0.0	2Suff w/o Lat.	22	95128	procedural	1.0	0.0	False
97.421	0.0	0Suff NW	4	97421	cheher	0.0	1.0	False
98.496	0.0	0Suff NW	4	98496	lecer	0.0	1.0	False
99.505	0.0	0Suff NW	4	99505	coatage	0.0	1.0	False
101.247	0.0	2Suff Composite	23	101247	sensation	1.0	0.0	False
102.281	0.0	0Suff w/ Lat.	1	102281	intend	1.0	0.0	False
103.339	0.0	0Suff w/o Lat.	2	103339	vaccine	1.0	0.0	False
104.331	0.0	2Suff w/o Lat.	22	104331	suitably	1.0	0.0	False
105.832	0.0	2Suff RealStemNW	25	105832	brutantly	0.0	1.0	False
107.399	0.0	1Suff w/o Lat.	12	107399	lovely	1.0	0.0	False
108.374	0.0	2Suff PseudoStemNW	24	108374	navounality	0.0	1.0	False
109.425	0.0	2Suff RealStemNW	25	109425	alterlessly	0.0	1.0	False
110.792	0.0	2Suff RealStemNW	25	110792	assertishness	0.0	1.0	False
112.626	0.0	2Suff w/o Lat.	22	112626	methodically	1.0	0.0	False
114.584	0.0	1Suff RealStemNW	15	114584	merciable	0.0	1.0	False
115.918	0.0	0Suff NW	4	115918	hett	0.0	1.0	False
116.977	0.0	1Suff RealStemNW	15	116977	perfectate	0.0	1.0	False
118.044	0.0	0Suff w/o Lat.	2	118044	virtue	1.0	0.0	False
119.553	0.0	1Suff RealStemNW	15	119553	comparatful	0.0	1.0	False
120.661	0.0	2Suff w/o Lat.	22	120661	endlessly	1.0	0.0	False
121.712	0.0	1Suff w/o Lat.	12	121712	existence	1.0	0.0	False
123.179	0.0	1Suff RealStemNW	15	123179	civilist	0.0	1.0	False
124.463	0.0	0Suff w/o Lat.	2	124463	just	1.0	0.0	False
125.513	0.0	2Suff PseudoStemNW	24	125513	trithfulness	0.0	1.0	False
126.838	0.0	0Suff NW	4	126838	excrode	0.0	1.0	False
127.83	0.0	2Suff w/o Lat.	22	127830	continuously	1.0	0.0	False
128.864	0.0	2Suff w/o Lat.	22	128864	mercifully	1.0	0.0	False
129.839	0.0	0Suff w/o Lat.	2	129839	haste	1.0	0.0	False
130.856	0.0	1Suff w/o Lat.	12	130856	signify	1.0	0.0	False
132.173	0.0	2Suff RealStemNW	25	132173	voyeurional	0.0	1.0	False
134.474	0.0	0Suff w/o Lat.	2	134474	self	1.0	0.0	False
135.516	0.0	1Suff RealStemNW	15	135516	effortable	0.0	1.0	False
136.783	0.0	0Suff w/o Lat.	2	136783	end	1.0	0.0	False
137.692	0.0	2Suff w/o Lat.	22	137692	existential	1.0	0.0	False
139.05	0.0	1Suff w/o Lat.	12	139050	fruitless	1.0	0.0	False
139.917	0.0	2Suff RealStemNW	25	139917	actional	0.0	1.0	False
141.159	0.0	0Suff NW	4	141159	seet	0.0	1.0	False
142.185	0.0	1Suff w/o Lat.	12	142185	joyous	1.0	1.0	True
143.118	0.0	0Suff w/o Lat.	2	143118	effort	1.0	0.0	False
144.452	0.0	0Suff NW	4	144452	perfall	0.0	1.0	False
145.611	0.0	1Suff PseudoStemNW	14	145611	cutfural	0.0	1.0	False
147.178	0.0	2Suff PseudoStemNW	24	147178	vetcination	0.0	n/a	False
149.579	0.0	0Suff NW	4	149579	freat	0.0	1.0	False
150.662	0.0	1Suff w/o Lat.	12	150662	tactical	1.0	0.0	False
151.896	0.0	2Suff RealStemNW	25	151896	hierarchally	0.0	n/a	False
154.297	0.0	1Suff RealStemNW	15	154297	relentable	0.0	1.0	False
156.347	0.0	0Suff NW	4	156347	pacic	0.0	1.0	False
157.373	0.0	1Suff w/o Lat.	12	157373	fortunate	1.0	0.0	False
158.523	0.0	1Suff w/o Lat.	12	158523	active	1.0	0.0	False
159.523	0.0	2Suff w/o Lat.	22	159523	usefulness	1.0	0.0	False
160.565	0.0	2Suff w/o Lat.	22	160565	modernistic	1.0	1.0	True
162.283	0.0	2Suff w/o Lat.	22	162283	modernization	1.0	0.0	False
163.808	0.0	2Suff PseudoStemNW	24	163808	kibsliness	0.0	1.0	False
164.9	0.0	2Suff RealStemNW	25	164900	commerceantly	0.0	1.0	False
166.626	0.0	2Suff w/o Lat.	22	166626	significant	1.0	0.0	False
167.884	0.0	1Suff w/o Lat.	12	167884	secondary	1.0	0.0	False
168.976	0.0	1Suff PseudoStemNW	14	168976	selveless	0.0	1.0	False
170.769	0.0	2Suff PseudoStemNW	24	170769	effornively	0.0	1.0	False
171.852	0.0	2Suff RealStemNW	25	171852	feverality	0.0	1.0	False
173.528	0.0	1Suff PseudoStemNW	14	173528	rinchful	0.0	1.0	False
174.536	0.0	1Suff w/o Lat.	12	174536	prophetic	1.0	0.0	False
176.729	0.0	0Suff NW	4	176729	orn	0.0	1.0	False
178.438	0.0	2Suff RealStemNW	25	178438	intentality	0.0	1.0	False
180.697	0.0	1Suff RealStemNW	15	180697	mercyive	0.0	1.0	False
182.23	0.0	2Suff RealStemNW	25	182230	fertilability	0.0	1.0	False
183.898	0.0	2Suff PseudoStemNW	24	183898	rinchfully	0.0	1.0	False
185.14	0.0	0Suff w/o Lat.	2	185140	notice	1.0	0.0	False
186.173	0.0	2Suff RealStemNW	25	186173	continliness	0.0	1.0	False
187.249	0.0	1Suff RealStemNW	15	187249	exceptate	0.0	1.0	False
188.716	0.0	1Suff w/o Lat.	12	188716	suitable	1.0	0.0	False
189.941	0.0	0Suff w/o Lat.	2	189941	vary	1.0	0.0	False
191.825	0.0	0Suff w/o Lat.	2	191825	sharp	1.0	0.0	False
192.917	0.0	1Suff RealStemNW	15	192917	exclusful	0.0	1.0	False
194.042	0.0	2Suff w/o Lat.	22	194042	loneliness	1.0	0.0	False
195.093	0.0	1Suff PseudoStemNW	14	195093	ludsy	0.0	1.0	False
196.168	0.0	2Suff Composite	23	196168	quizzical	1.0	0.0	False
197.51	0.0	0Suff w/o Lat.	2	197510	civil	1.0	0.0	False
199.402	0.0	0Suff w/o Lat.	2	199402	luck	1.0	0.0	False
200.403	0.0	1Suff w/o Lat.	12	200403	hearty	1.0	0.0	False
201.303	0.0	0Suff w/ Lat.	1	201303	express	1.0	0.0	False
202.303	0.0	1Suff RealStemNW	15	202303	tacticic	0.0	1.0	False
203.604	0.0	2Suff RealStemNW	25	203604	variality	0.0	1.0	False
204.779	0.0	2Suff PseudoStemNW	24	204779	cutfurally	0.0	1.0	False
206.004	0.0	2Suff w/o Lat.	22	206004	personalize	1.0	0.0	False
206.988	0.0	2Suff w/o Lat.	22	206988	heroically	1.0	0.0	False
208.072	0.0	0Suff w/o Lat.	2	208072	act	1.0	0.0	False
209.005	0.0	0Suff w/o Lat.	2	209005	noise	1.0	0.0	False
209.881	0.0	2Suff RealStemNW	25	209881	selectously	0.0	1.0	False
211.023	0.0	2Suff w/o Lat.	22	211023	tactically	1.0	0.0	False
212.223	0.0	1Suff RealStemNW	15	212223	monumentic	0.0	1.0	False
213.915	0.0	2Suff w/o Lat.	22	213915	ceaselessly	1.0	1.0	True
215.174	0.0	1Suff PseudoStemNW	14	215174	herfal	0.0	n/a	False
217.575	0.0	1Suff w/ Lat.	11	217575	perfection	1.0	0.0	False
218.875	0.0	2Suff w/ Lat.	21	218875	inspirational	1.0	0.0	False
220.142	0.0	2Suff PseudoStemNW	24	220142	blunkenness	0.0	1.0	False
221.251	0.0	2Suff w/o Lat.	22	221251	personally	1.0	0.0	False
222.401	0.0	1Suff w/o Lat.	12	222401	herbal	1.0	0.0	False
223.343	0.0	0Suff NW	4	223343	greard	0.0	1.0	False
224.402	0.0	1Suff RealStemNW	15	224402	institutate	0.0	1.0	False
225.561	0.0	2Suff Composite	23	225561	ordination	1.0	0.0	False
227.111	0.0	0Suff w/o Lat.	2	227111	compare	1.0	0.0	False
228.186	0.0	2Suff RealStemNW	25	228186	victimilessly	0.0	1.0	False
230.587	0.0	2Suff w/o Lat.	22	230587	rightfully	1.0	0.0	False
231.754	0.0	2Suff Composite	23	231754	vulgarization	1.0	1.0	True
233.138	0.0	0Suff w/o Lat.	2	233138	fortune	1.0	0.0	False
234.121	0.0	1Suff w/o Lat.	12	234121	endless	1.0	0.0	False
235.038	0.0	2Suff w/o Lat.	22	235038	spiritually	1.0	0.0	False
236.03	0.0	1Suff w/o Lat.	12	236030	customary	1.0	1.0	True
237.364	0.0	1Suff w/o Lat.	12	237364	merciful	1.0	0.0	False
238.473	0.0	0Suff NW	4	238473	sedule	0.0	1.0	False
239.573	0.0	0Suff NW	4	239573	conwode	0.0	1.0	False
240.54	0.0	1Suff w/ Lat.	11	240540	excessive	1.0	0.0	False
248.893	0.0	0Suff NW	4	248893	copperce	0.0	1.0	False
250.11	0.0	2Suff w/o Lat.	22	250110	preferably	1.0	0.0	False
252.085	0.0	1Suff PseudoStemNW	14	252085	janiable	0.0	n/a	False
254.486	0.0	1Suff w/o Lat.	12	254486	procedure	1.0	0.0	False
255.503	0.0	0Suff NW	4	255503	darber	0.0	1.0	False
256.503	0.0	2Suff w/ Lat.	21	256503	expressionism	1.0	1.0	True
257.812	0.0	0Suff w/o Lat.	2	257812	fertile	1.0	0.0	False
259.079	0.0	0Suff NW	4	259079	prosood	0.0	1.0	False
260.08	0.0	2Suff PseudoStemNW	24	260080	cladsification	0.0	1.0	False
261.338	0.0	2Suff w/o Lat.	22	261338	nationalism	1.0	0.0	False
262.555	0.0	0Suff w/o Lat.	2	262555	pure	1.0	0.0	False
263.522	0.0	0Suff w/o Lat.	2	263522	comic	1.0	0.0	False
264.406	0.0	2Suff w/o Lat.	22	264406	fertilization	1.0	0.0	False
265.373	0.0	0Suff w/ Lat.	1	265373	except	1.0	0.0	False
266.457	0.0	1Suff w/ Lat.	11	266457	expression	1.0	0.0	False
267.457	0.0	1Suff w/o Lat.	12	267457	attentive	1.0	0.0	False
268.699	0.0	2Suff w/o Lat.	22	268699	uselessly	1.0	0.0	False
269.758	0.0	1Suff w/o Lat.	12	269758	collective	1.0	0.0	False
270.85	0.0	2Suff w/o Lat.	22	270850	symbolically	1.0	0.0	False
271.833	0.0	2Suff w/o Lat.	22	271833	fearfully	1.0	0.0	False
272.95	0.0	0Suff w/ Lat.	1	272950	institute	1.0	0.0	False
273.95	0.0	1Suff w/o Lat.	12	273950	artist	1.0	0.0	False
275.818	0.0	2Suff w/o Lat.	22	275818	helpfully	1.0	0.0	False
276.76	0.0	2Suff Composite	23	276760	nullification	1.0	1.0	True
277.802	0.0	2Suff w/ Lat.	21	277802	expressionist	1.0	0.0	False
279.177	0.0	0Suff NW	4	279177	tablic	0.0	1.0	False
280.478	0.0	1Suff w/o Lat.	12	280478	lonely	1.0	0.0	False
281.494	0.0	0Suff w/o Lat.	2	281494	symbol	1.0	0.0	False
282.453	0.0	1Suff RealStemNW	15	282453	classal	0.0	1.0	False
283.578	0.0	1Suff w/o Lat.	12	283578	admirable	1.0	0.0	False
284.654	0.0	1Suff PseudoStemNW	14	284654	griedy	0.0	1.0	False
285.721	0.0	2Suff RealStemNW	25	285721	loneionist	0.0	1.0	False
286.938	0.0	2Suff w/o Lat.	22	286938	spiritualize	1.0	0.0	False
287.946	0.0	2Suff RealStemNW	25	287946	explosfully	0.0	1.0	False
290.072	0.0	0Suff w/o Lat.	2	290072	suit	1.0	0.0	False
290.989	0.0	2Suff Composite	23	290989	secularization	1.0	1.0	True
292.465	0.0	1Suff PseudoStemNW	14	292465	jokous	0.0	1.0	False
294.282	0.0	1Suff PseudoStemNW	14	294282	omlical	0.0	1.0	False
295.232	0.0	0Suff NW	4	295232	carsh	0.0	1.0	False
296.516	0.0	1Suff PseudoStemNW	14	296516	lokely	0.0	1.0	False
297.433	0.0	2Suff w/o Lat.	22	297433	critically	1.0	0.0	False
298.4	0.0	2Suff PseudoStemNW	24	298400	utiethation	0.0	1.0	False
299.408	0.0	1Suff PseudoStemNW	14	299408	seetable	0.0	1.0	False
301.251	0.0	1Suff RealStemNW	15	301251	humanify	0.0	1.0	False
302.501	0.0	2Suff w/ Lat.	21	302501	provisional	1.0	0.0	False
303.601	0.0	2Suff PseudoStemNW	24	303601	mocondarily	0.0	1.0	False
304.802	0.0	0Suff NW	4	304802	combore	0.0	1.0	False
305.852	0.0	1Suff w/o Lat.	12	305852	wonderful	1.0	0.0	False
307.194	0.0	2Suff Composite	23	307194	fortification	1.0	1.0	True
308.978	0.0	1Suff w/o Lat.	12	308978	sensible	1.0	0.0	False
310.02	0.0	2Suff PseudoStemNW	24	310020	pipsonally	0.0	1.0	False
311.62	0.0	1Suff w/o Lat.	12	311620	sharpen	1.0	0.0	False
312.637	0.0	1Suff RealStemNW	15	312637	commerceic	0.0	1.0	False
314.046	0.0	2Suff w/o Lat.	22	314046	mercilessly	1.0	0.0	False
315.697	0.0	2Suff PseudoStemNW	24	315697	inglinitional	0.0	1.0	False
317.056	0.0	2Suff RealStemNW	25	317056	joyality	0.0	1.0	False
318.398	0.0	2Suff w/o Lat.	22	318398	spirituality	1.0	0.0	False
319.59	0.0	2Suff RealStemNW	25	319590	dergadfully	0.0	1.0	False
320.782	0.0	2Suff w/o Lat.	22	320782	lustily	1.0	1.0	True
322.024	0.0	1Suff w/o Lat.	12	322024	lucky	1.0	0.0	False
322.999	0.0	2Suff RealStemNW	25	322999	classally	0.0	1.0	False
324.283	0.0	0Suff w/o Lat.	2	324283	mercy	1.0	0.0	False
325.35	0.0	1Suff RealStemNW	15	325350	passionion	0.0	1.0	False
326.784	0.0	1Suff RealStemNW	15	326784	noticeless	0.0	1.0	False
328.534	0.0	0Suff w/o Lat.	2	328534	create	1.0	0.0	False
329.484	0.0	0Suff NW	4	329484	gried	0.0	1.0	False
330.535	0.0	1Suff PseudoStemNW	14	330535	arbument	0.0	1.0	False
331.893	0.0	1Suff w/o Lat.	12	331893	greedy	1.0	1.0	True
332.885	0.0	2Suff RealStemNW	25	332885	lustery	0.0	1.0	False
335.169	0.0	2Suff RealStemNW	25	335169	quizzally	0.0	0.0	True
336.178	0.0	0Suff NW	4	336178	brole	0.0	1.0	False
337.654	0.0	0Suff NW	4	337654	brealt	0.0	1.0	False
338.721	0.0	1Suff PseudoStemNW	14	338721	moolurable	0.0	1.0	False
339.829	0.0	2Suff w/o Lat.	22	339829	comparatively	1.0	0.0	False
341.555	0.0	2Suff RealStemNW	25	341555	couragliness	0.0	1.0	False
342.88	0.0	2Suff PseudoStemNW	24	342880	byvrical	0.0	1.0	False
344.022	0.0	2Suff w/o Lat.	22	344022	vaccination	1.0	0.0	False
345.164	0.0	1Suff RealStemNW	15	345164	truthive	0.0	1.0	False
346.606	0.0	0Suff NW	4	346606	obwert	0.0	1.0	False
347.723	0.0	1Suff RealStemNW	15	347723	collectful	0.0	1.0	False
348.932	0.0	2Suff PseudoStemNW	24	348932	pogularization	0.0	1.0	False
350.174	0.0	1Suff w/o Lat.	12	350174	relentless	1.0	0.0	False
351.416	0.0	1Suff w/o Lat.	12	351416	civilize	1.0	1.0	True
352.867	0.0	1Suff PseudoStemNW	14	352867	selvible	0.0	1.0	False
354.159	0.0	1Suff w/ Lat.	11	354159	presumable	1.0	0.0	False
355.567	0.0	1Suff PseudoStemNW	14	355567	movectize	0.0	1.0	False
356.568	0.0	2Suff PseudoStemNW	24	356568	flivituality	0.0	1.0	False
357.918	0.0	1Suff RealStemNW	15	357918	continuic	0.0	1.0	False
359.152	0.0	1Suff RealStemNW	15	359152	abolitate	0.0	1.0	False
360.402	0.0	2Suff PseudoStemNW	24	360402	gunderfully	0.0	1.0	False
361.578	0.0	2Suff RealStemNW	25	361578	commerceical	0.0	1.0	False
363.011	0.0	0Suff w/o Lat.	2	363011	greed	1.0	0.0	False
364.087	0.0	1Suff PseudoStemNW	14	364087	mymbolic	0.0	1.0	False
365.062	0.0	1Suff RealStemNW	15	365062	industryic	0.0	1.0	False
366.312	0.0	0Suff w/o Lat.	2	366312	module	1.0	0.0	False
367.313	0.0	1Suff RealStemNW	15	367313	helpive	0.0	1.0	False
368.396	0.0	2Suff w/o Lat.	22	368396	industrialist	1.0	0.0	False
370.055	0.0	2Suff w/o Lat.	22	370055	artistic	1.0	0.0	False
371.756	0.0	0Suff NW	4	371756	atstart	0.0	1.0	False
372.756	0.0	2Suff PseudoStemNW	24	372756	connurtivity	0.0	1.0	False
373.823	0.0	0Suff NW	4	373823	jok	0.0	1.0	False
374.74	0.0	0Suff NW	4	374740	meleft	0.0	1.0	False
375.674	0.0	2Suff Composite	23	375674	degradation	1.0	0.0	False
377.291	0.0	2Suff PseudoStemNW	24	377291	foptration	0.0	1.0	False
378.433	0.0	1Suff w/o Lat.	12	378433	assertive	1.0	0.0	False
380.367	0.0	0Suff NW	4	380367	selve	0.0	1.0	False
381.334	0.0	2Suff w/ Lat.	21	381334	perfectionism	1.0	0.0	False
383.359	0.0	1Suff w/o Lat.	12	383359	kindly	1.0	0.0	False
384.643	0.0	1Suff w/o Lat.	12	384643	confidence	1.0	0.0	False
386.077	0.0	2Suff PseudoStemNW	24	386077	sarumentally	0.0	1.0	False
387.102	0.0	2Suff w/o Lat.	22	387102	fortunately	1.0	0.0	False
388.561	0.0	0Suff NW	4	388561	nolfs	0.0	1.0	False
389.786	0.0	0Suff w/ Lat.	1	389786	object	1.0	0.0	False
390.962	0.0	1Suff PseudoStemNW	14	390962	eschession	0.0	1.0	False
392.02	0.0	2Suff PseudoStemNW	24	392020	murpilessly	0.0	1.0	False
393.454	0.0	0Suff NW	4	393454	cuppom	0.0	1.0	False
394.379	0.0	2Suff w/o Lat.	22	394379	prophetically	1.0	0.0	False
395.538	0.0	1Suff w/o Lat.	12	395538	classic	1.0	0.0	False
396.43	0.0	0Suff NW	4	396430	comfern	0.0	1.0	False
407.567	0.0	2Suff w/o Lat.	22	407567	fertilizer	1.0	0.0	False
408.751	0.0	0Suff w/o Lat.	2	408751	style	1.0	0.0	False
409.609	0.0	0Suff w/ Lat.	1	409609	conclude	1.0	0.0	False
410.526	0.0	2Suff RealStemNW	25	410526	noisery	0.0	1.0	False
411.693	0.0	1Suff w/o Lat.	12	411693	computer	1.0	0.0	False
412.994	0.0	1Suff w/o Lat.	12	412994	merciless	1.0	0.0	False
414.277	0.0	2Suff RealStemNW	25	414277	identifilessly	0.0	1.0	False
416.111	0.0	2Suff RealStemNW	25	416111	criticical	0.0	1.0	False
417.895	0.0	2Suff w/o Lat.	22	417895	herbalist	1.0	n/a	False
420.296	0.0	2Suff RealStemNW	25	420296	brokiness	0.0	1.0	False
421.696	0.0	2Suff w/ Lat.	21	421696	objectively	1.0	0.0	False
422.78	0.0	2Suff RealStemNW	25	422780	whimsally	0.0	1.0	False
424.297	0.0	2Suff PseudoStemNW	24	424297	cankfully	0.0	1.0	False
425.289	0.0	2Suff PseudoStemNW	24	425289	arresogical	0.0	1.0	False
426.656	0.0	2Suff RealStemNW	25	426656	synchronilessly	0.0	1.0	False
428.232	0.0	1Suff RealStemNW	15	428232	preferless	0.0	1.0	False
429.949	0.0	2Suff w/ Lat.	21	429949	excessively	1.0	0.0	False
432.241	0.0	2Suff w/o Lat.	22	432241	personality	1.0	0.0	False
433.316	0.0	2Suff PseudoStemNW	24	433316	sothodically	0.0	1.0	False
434.325	0.0	1Suff w/o Lat.	12	434325	abolition	1.0	0.0	False
436.009	0.0	0Suff w/o Lat.	2	436009	clinic	1.0	0.0	False
437.968	0.0	1Suff w/o Lat.	12	437968	continual	1.0	0.0	False
439.093	0.0	2Suff RealStemNW	25	439093	valufully	0.0	1.0	False
440.302	0.0	1Suff RealStemNW	15	440302	needable	0.0	1.0	False
441.586	0.0	0Suff NW	4	441586	blunk	0.0	1.0	False
442.578	0.0	0Suff NW	4	442578	bruke	0.0	1.0	False
443.52	0.0	2Suff RealStemNW	25	443520	heroliness	0.0	1.0	False
444.67	0.0	1Suff RealStemNW	15	444670	feverory	0.0	1.0	False
445.637	0.0	2Suff w/o Lat.	22	445637	masterfully	1.0	0.0	False
447.371	0.0	1Suff PseudoStemNW	14	447371	desterful	0.0	1.0	False
448.471	0.0	0Suff w/o Lat.	2	448471	spirit	1.0	0.0	False
450.013	0.0	0Suff w/o Lat.	2	450013	fear	1.0	0.0	False
450.964	0.0	0Suff NW	4	450964	trith	0.0	1.0	False
451.947	0.0	2Suff RealStemNW	25	451947	exceptality	0.0	1.0	False
453.273	0.0	1Suff w/o Lat.	12	453273	brutal	1.0	0.0	False
454.315	0.0	2Suff RealStemNW	25	454315	suitfulness	0.0	1.0	False
455.34	0.0	0Suff NW	4	455340	navoun	0.0	0.0	True
456.199	0.0	2Suff PseudoStemNW	24	456199	bleadfully	0.0	1.0	False
457.407	0.0	0Suff w/o Lat.	2	457407	tradition	1.0	0.0	False
458.633	0.0	1Suff PseudoStemNW	14	458633	orner	0.0	0.0	True
459.641	0.0	0Suff NW	4	459641	kibs	0.0	1.0	False
460.783	0.0	2Suff PseudoStemNW	24	460783	healtily	0.0	1.0	False
462.034	0.0	2Suff w/o Lat.	22	462034	actively	1.0	0.0	False
463.026	0.0	2Suff w/o Lat.	22	463026	comically	1.0	0.0	False
464.151	0.0	0Suff w/o Lat.	2	464151	commerce	1.0	0.0	False
465.235	0.0	0Suff w/o Lat.	2	465235	optic	1.0	0.0	False
466.285	0.0	2Suff w/o Lat.	22	466285	commercialism	1.0	0.0	False
467.402	0.0	1Suff w/o Lat.	12	467402	breathless	1.0	0.0	False
468.411	0.0	2Suff w/o Lat.	22	468411	truthfulness	1.0	0.0	False
469.553	0.0	2Suff w/o Lat.	22	469553	carelessly	1.0	0.0	False
470.511	0.0	2Suff PseudoStemNW	24	470511	contitually	0.0	1.0	False
471.662	0.0	2Suff w/o Lat.	22	471662	instinctively	1.0	0.0	False
473.312	0.0	1Suff w/o Lat.	12	473312	careful	1.0	0.0	False
474.346	0.0	2Suff w/o Lat.	22	474346	sensibility	1.0	0.0	False
476.38	0.0	2Suff RealStemNW	25	476380	selfiveness	0.0	1.0	False
477.73	0.0	0Suff NW	4	477730	efforn	0.0	1.0	False
478.856	0.0	2Suff RealStemNW	25	478856	purifilessly	0.0	1.0	False
480.431	0.0	0Suff w/o Lat.	2	480431	comfort	1.0	0.0	False
481.606	0.0	0Suff w/o Lat.	2	481606	danger	1.0	0.0	False
482.473	0.0	2Suff RealStemNW	25	482473	breathiously	0.0	1.0	False
483.949	0.0	2Suff w/ Lat.	21	483949	exceptional	1.0	0.0	False
485.099	0.0	2Suff RealStemNW	25	485099	ownmental	0.0	1.0	False
486.225	0.0	1Suff w/o Lat.	12	486225	foolish	1.0	0.0	False
487.242	0.0	1Suff PseudoStemNW	14	487242	ceantless	0.0	1.0	False
488.258	0.0	0Suff NW	4	488258	vectue	0.0	0.0	True
489.2	0.0	2Suff PseudoStemNW	24	489200	foffification	0.0	1.0	False
490.893	0.0	2Suff PseudoStemNW	24	490893	conspodively	0.0	1.0	False
492.21	0.0	1Suff RealStemNW	15	492210	selfory	0.0	1.0	False
493.327	0.0	1Suff w/o Lat.	12	493327	senseless	1.0	0.0	False
494.535	0.0	1Suff w/o Lat.	12	494535	selective	1.0	0.0	False
495.744	0.0	1Suff w/o Lat.	12	495744	momentary	1.0	1.0	True
497.67	0.0	1Suff RealStemNW	15	497670	admirless	0.0	0.0	True
499.645	0.0	0Suff w/o Lat.	2	499645	passion	1.0	0.0	False
501.046	0.0	0Suff NW	4	501046	hunen	0.0	1.0	False
502.088	0.0	2Suff w/o Lat.	22	502088	tirelessly	1.0	0.0	False
503.071	0.0	2Suff PseudoStemNW	24	503071	mymbolically	0.0	1.0	False
504.205	0.0	0Suff NW	4	504205	loke	0.0	1.0	False
505.197	0.0	2Suff w/ Lat.	21	505197	conductivity	1.0	1.0	True
506.497	0.0	1Suff w/o Lat.	12	506497	victimize	1.0	0.0	False
507.664	0.0	1Suff PseudoStemNW	14	507664	elpardive	0.0	1.0	False
508.74	0.0	2Suff w/o Lat.	22	508740	virtuosity	1.0	1.0	True
510.265	0.0	0Suff w/o Lat.	2	510265	critic	1.0	0.0	False
511.516	0.0	1Suff w/ Lat.	11	511516	provision	1.0	0.0	False
512.499	0.0	2Suff w/o Lat.	22	512499	confidential	1.0	0.0	False
513.491	0.0	0Suff w/o Lat.	2	513491	fool	1.0	0.0	False
514.6	0.0	2Suff PseudoStemNW	24	514600	pimerfully	0.0	1.0	False
515.667	0.0	1Suff PseudoStemNW	14	515667	ewilsence	0.0	1.0	False
516.776	0.0	1Suff w/o Lat.	12	516776	virtuous	1.0	0.0	False
518.701	0.0	2Suff w/o Lat.	22	518701	optically	1.0	0.0	False
519.668	0.0	1Suff RealStemNW	15	519668	conclusful	0.0	1.0	False
520.819	0.0	1Suff w/o Lat.	12	520819	preferable	1.0	0.0	False
521.961	0.0	2Suff RealStemNW	25	521961	actality	0.0	1.0	False
523.086	0.0	0Suff NW	4	523086	podent	0.0	1.0	False
524.111	0.0	0Suff w/o Lat.	2	524111	master	1.0	0.0	False
525.212	0.0	2Suff w/o Lat.	22	525212	attentively	1.0	0.0	False
526.662	0.0	2Suff w/o Lat.	22	526662	hastily	1.0	0.0	False
527.746	0.0	2Suff PseudoStemNW	24	527746	darberously	0.0	1.0	False
528.888	0.0	2Suff w/o Lat.	22	528888	culturally	1.0	0.0	False
530.021	0.0	0Suff NW	4	530021	nead	0.0	1.0	False
531.138	0.0	2Suff PseudoStemNW	24	531138	movectization	0.0	1.0	False
532.481	0.0	0Suff w/o Lat.	2	532481	human	1.0	0.0	False
533.447	0.0	1Suff w/o Lat.	12	533447	fertilize	1.0	0.0	False
534.539	0.0	0Suff NW	4	534539	onnend	0.0	0.0	True
535.565	0.0	2Suff Composite	23	535565	synchronization	1.0	0.0	False
536.924	0.0	1Suff PseudoStemNW	14	536924	contituous	0.0	1.0	False
538.607	0.0	1Suff PseudoStemNW	14	538607	indlidstive	0.0	1.0	False
539.616	0.0	2Suff PseudoStemNW	24	539616	sedulation	0.0	1.0	False
540.683	0.0	1Suff PseudoStemNW	14	540683	traphetic	0.0	1.0	False
541.692	0.0	2Suff PseudoStemNW	24	541692	lokeliness	0.0	1.0	False
542.842	0.0	2Suff w/ Lat.	21	542842	objectionable	1.0	1.0	True
544.368	0.0	2Suff PseudoStemNW	24	544368	conwodential	0.0	1.0	False
545.518	0.0	1Suff w/o Lat.	12	545518	justify	1.0	0.0	False
546.543	0.0	2Suff w/o Lat.	22	546543	righteousness	1.0	0.0	False
547.61	0.0	1Suff w/ Lat.	11	547610	intention	1.0	0.0	False
548.669	0.0	0Suff NW	4	548669	jist	0.0	1.0	False
549.669	0.0	0Suff NW	4	549669	movect	0.0	1.0	False
550.878	0.0	2Suff RealStemNW	25	550878	magicical	0.0	0.0	True
551.928	0.0	2Suff PseudoStemNW	24	551928	soripsistic	0.0	1.0	False
553.554	0.0	2Suff w/ Lat.	21	553554	institutional	1.0	0.0	False
557.23	0.0	2Suff w/o Lat.	22	557230	slippery	1.0	0.0	False
558.455	0.0	1Suff w/o Lat.	12	558455	slipper	1.0	0.0	False
559.489	0.0	0Suff NW	4	559489	gunder	0.0	1.0	False
560.623	0.0	0Suff NW	4	560623	awn	0.0	1.0	False
561.698	0.0	0Suff w/o Lat.	2	561698	slip	1.0	0.0	False
562.682	0.0	2Suff Composite	23	562682	valuation	1.0	0.0	False
563.824	0.0	0Suff w/o Lat.	2	563824	select	1.0	0.0	False
564.707	0.0	0Suff w/o Lat.	2	564707	monument	1.0	0.0	False
565.749	0.0	1Suff PseudoStemNW	14	565749	darberous	0.0	1.0	False
566.874	0.0	1Suff w/o Lat.	12	566874	legalize	1.0	0.0	False
567.958	0.0	2Suff w/o Lat.	22	567958	dreadfully	1.0	0.0	False
569.125	0.0	1Suff w/ Lat.	11	569125	effective	1.0	0.0	False
570.209	0.0	1Suff w/o Lat.	12	570209	flexible	1.0	0.0	False
571.126	0.0	0Suff NW	4	571126	ceant	0.0	1.0	False
572.193	0.0	0Suff NW	4	572193	exfal	0.0	1.0	False
573.168	0.0	0Suff NW	4	573168	mocond	0.0	1.0	False
574.168	0.0	1Suff w/o Lat.	12	574168	effortless	1.0	0.0	False
575.094	0.0	0Suff NW	4	575094	combure	0.0	1.0	False
576.061	0.0	1Suff w/o Lat.	12	576061	powerful	1.0	0.0	False
577.011	0.0	1Suff w/o Lat.	12	577011	attractive	1.0	0.0	False
578.053	0.0	1Suff PseudoStemNW	14	578053	flivitual	0.0	1.0	False
579.128	0.0	0Suff NW	4	579128	sothod	0.0	1.0	False
580.07	0.0	0Suff w/o Lat.	2	580070	modern	1.0	0.0	False
580.929	0.0	1Suff RealStemNW	15	580929	magicic	0.0	1.0	False
582.129	0.0	1Suff RealStemNW	15	582129	legalist	0.0	0.0	True
583.113	0.0	0Suff NW	4	583113	herf	0.0	1.0	False
584.28	0.0	1Suff w/o Lat.	12	584280	clinical	1.0	0.0	False
585.305	0.0	1Suff PseudoStemNW	14	585305	hainy	0.0	1.0	False
586.272	0.0	1Suff PseudoStemNW	14	586272	prosodure	0.0	1.0	False
587.331	0.0	0Suff NW	4	587331	indlidst	0.0	1.0	False
588.464	0.0	0Suff NW	4	588464	colliff	0.0	1.0	False
589.398	0.0	2Suff w/ Lat.	21	589398	intentional	1.0	0.0	False
590.423	0.0	0Suff w/o Lat.	2	590423	kind	1.0	0.0	False
591.457	0.0	2Suff PseudoStemNW	24	591457	booftifully	0.0	1.0	False
592.716	0.0	0Suff w/o Lat.	2	592716	respect	1.0	0.0	False
593.724	0.0	2Suff PseudoStemNW	24	593724	colliffively	0.0	1.0	False
595.083	0.0	0Suff w/o Lat.	2	595083	courage	1.0	0.0	False
596.084	0.0	0Suff w/o Lat.	2	596084	excel	1.0	0.0	False
597.201	0.0	0Suff w/o Lat.	2	597201	truth	1.0	0.0	False
598.101	0.0	1Suff RealStemNW	15	598101	flexless	0.0	0.0	True
599.126	0.0	0Suff w/o Lat.	2	599126	own	1.0	0.0	False
600.11	0.0	2Suff w/o Lat.	22	600110	kindliness	1.0	0.0	False
601.035	0.0	0Suff NW	4	601035	ewils	0.0	1.0	False
602.227	0.0	2Suff w/o Lat.	22	602227	greedily	1.0	0.0	False
603.294	0.0	2Suff PseudoStemNW	24	603294	pipsonality	0.0	1.0	False
604.978	0.0	2Suff RealStemNW	25	604978	nationical	0.0	1.0	False
606.312	0.0	1Suff w/o Lat.	12	606312	creative	1.0	0.0	False
607.387	0.0	1Suff w/o Lat.	12	607387	helpful	1.0	0.0	False
608.329	0.0	0Suff NW	4	608329	recrern	0.0	1.0	False
609.329	0.0	0Suff NW	4	609329	franic	0.0	1.0	False
610.455	0.0	2Suff w/o Lat.	22	610455	classical	1.0	0.0	False
611.438	0.0	0Suff NW	4	611438	inflise	0.0	1.0	False
612.555	0.0	2Suff w/o Lat.	22	612555	selectively	1.0	0.0	False
613.689	0.0	1Suff w/o Lat.	12	613689	masterful	1.0	1.0	True
615.623	0.0	0Suff NW	4	615623	exfapt	0.0	1.0	False
616.557	0.0	0Suff w/o Lat.	2	616557	custom	1.0	0.0	False
617.473	0.0	1Suff w/ Lat.	11	617473	exclusive	1.0	0.0	False
618.574	0.0	2Suff RealStemNW	25	618574	signmentive	0.0	1.0	False
619.682	0.0	1Suff PseudoStemNW	14	619682	indless	0.0	0.0	True
620.766	0.0	0Suff w/o Lat.	2	620766	joy	1.0	0.0	False
621.666	0.0	0Suff w/o Lat.	2	621666	wonder	1.0	0.0	False
622.742	0.0	2Suff w/o Lat.	22	622742	foolishly	1.0	0.0	False
624.076	0.0	2Suff RealStemNW	25	624076	hastery	0.0	1.0	False
625.268	0.0	1Suff PseudoStemNW	14	625268	exfallent	0.0	1.0	False
626.301	0.0	0Suff w/o Lat.	2	626301	method	1.0	0.0	False
627.268	0.0	1Suff w/o Lat.	12	627268	monumental	1.0	0.0	False
628.427	0.0	2Suff Composite	23	628427	maturation	1.0	0.0	False
630.011	0.0	1Suff PseudoStemNW	14	630011	sothodical	0.0	1.0	False
631.111	0.0	2Suff RealStemNW	25	631111	actfully	0.0	1.0	False
632.903	0.0	0Suff w/o Lat.	2	632903	breath	1.0	0.0	False
633.945	0.0	2Suff w/ Lat.	21	633945	composition	1.0	0.0	False
635.462	0.0	1Suff RealStemNW	15	635462	traditionic	0.0	1.0	False
636.571	0.0	2Suff w/o Lat.	22	636571	justification	1.0	0.0	False
637.755	0.0	2Suff w/o Lat.	22	637755	stylistic	1.0	0.0	False
640.047	0.0	1Suff PseudoStemNW	14	640047	obwertion	0.0	1.0	False
641.114	0.0	2Suff w/o Lat.	22	641114	excellently	1.0	n/a	False
643.507	0.0	0Suff NW	4	643507	sarument	0.0	1.0	False
644.515	0.0	1Suff PseudoStemNW	14	644515	allendive	0.0	1.0	False
645.674	0.0	2Suff w/o Lat.	22	645674	commercialize	1.0	0.0	False
646.958	0.0	2Suff Composite	23	646958	annexation	1.0	1.0	True
648.083	0.0	0Suff NW	4	648083	connurt	0.0	1.0	False
649.158	0.0	2Suff w/o Lat.	22	649158	variability	1.0	0.0	False
651.226	0.0	1Suff PseudoStemNW	14	651226	atstartive	0.0	1.0	False
652.393	0.0	2Suff RealStemNW	25	652393	excellalism	0.0	1.0	False
653.518	0.0	2Suff PseudoStemNW	24	653518	andezation	0.0	1.0	False
654.485	0.0	2Suff RealStemNW	25	654485	regionical	0.0	1.0	False
655.494	0.0	1Suff PseudoStemNW	14	655494	jokful	0.0	1.0	False
656.602	0.0	2Suff w/o Lat.	22	656602	traditionally	1.0	0.0	False
658.303	0.0	2Suff w/o Lat.	22	658303	beautifully	1.0	0.0	False
660.428	0.0	2Suff PseudoStemNW	24	660428	excrodiveness	0.0	1.0	False
661.604	0.0	2Suff w/o Lat.	22	661604	legalization	1.0	0.0	False
662.921	0.0	2Suff PseudoStemNW	24	662921	feamfully	0.0	1.0	False
664.08	0.0	1Suff RealStemNW	15	664080	slippor	0.0	1.0	False
665.038	0.0	2Suff PseudoStemNW	24	665038	perfallionist	0.0	1.0	False
666.072	0.0	0Suff w/o Lat.	2	666072	person	1.0	0.0	False
667.122	0.0	0Suff NW	4	667122	cutfure	0.0	1.0	False
668.214	0.0	1Suff PseudoStemNW	14	668214	arpive	0.0	1.0	False
669.248	0.0	1Suff RealStemNW	15	669248	selfable	0.0	1.0	False
670.165	0.0	2Suff PseudoStemNW	24	670165	navounalism	0.0	1.0	False
671.407	0.0	2Suff RealStemNW	25	671407	fruitiously	0.0	1.0	False
672.591	0.0	2Suff Composite	23	672591	penalization	1.0	1.0	True
673.649	0.0	0Suff NW	4	673649	pums	0.0	1.0	False
675.425	0.0	0Suff NW	4	675425	eschess	0.0	1.0	False
676.308	0.0	0Suff w/o Lat.	2	676308	culture	1.0	0.0	False
677.3	0.0	2Suff w/o Lat.	22	677300	nationality	1.0	0.0	False
678.417	0.0	0Suff w/o Lat.	2	678417	power	1.0	0.0	False
679.476	0.0	0Suff w/o Lat.	2	679476	cease	1.0	0.0	False
680.41	0.0	2Suff PseudoStemNW	24	680410	rincheousness	0.0	1.0	False
682.477	0.0	0Suff w/o Lat.	2	682477	FALSE	1.0	0.0	False
683.436	0.0	2Suff w/o Lat.	22	683436	artfully	1.0	1.0	True
684.528	0.0	0Suff NW	4	684528	haint	0.0	1.0	False
685.461	0.0	2Suff PseudoStemNW	24	685461	fipitation	0.0	1.0	False
686.72	0.0	2Suff w/o Lat.	22	686720	wonderfully	1.0	0.0	False
687.654	0.0	2Suff Composite	23	687654	altercation	1.0	0.0	False
688.879	0.0	0Suff w/o Lat.	2	688879	lone	1.0	0.0	False
689.854	0.0	0Suff w/o Lat.	2	689854	exist	1.0	0.0	False
690.729	0.0	2Suff RealStemNW	25	690729	careiousness	0.0	1.0	False
692.072	0.0	2Suff w/o Lat.	22	692072	flexibility	1.0	0.0	False
693.305	0.0	2Suff w/o Lat.	22	693305	momentarily	1.0	0.0	False
699.549	0.0	2Suff PseudoStemNW	24	699549	jokfully	0.0	1.0	False
700.791	0.0	0Suff w/o Lat.	2	700791	legal	1.0	0.0	False
701.833	0.0	0Suff NW	4	701833	selp	0.0	1.0	False
702.958	0.0	1Suff RealStemNW	15	702958	mournive	0.0	1.0	False
704.55	0.0	2Suff RealStemNW	25	704550	penalilessly	0.0	1.0	False
706.034	0.0	0Suff NW	4	706034	murpy	0.0	1.0	False
707.326	0.0	1Suff w/o Lat.	12	707326	modernize	1.0	0.0	False
708.393	0.0	1Suff w/ Lat.	11	708393	inspiration	1.0	0.0	False
709.369	0.0	0Suff w/o Lat.	2	709369	need	1.0	0.0	False
710.736	0.0	1Suff w/ Lat.	11	710736	exception	1.0	0.0	False
711.728	0.0	0Suff w/o Lat.	2	711728	relent	1.0	0.0	False
712.928	0.0	0Suff NW	4	712928	byvre	0.0	1.0	False
713.845	0.0	1Suff PseudoStemNW	14	713845	pipsonal	0.0	1.0	False
714.879	0.0	0Suff w/o Lat.	2	714879	assert	1.0	0.0	False
715.796	0.0	2Suff PseudoStemNW	24	715796	faicification	0.0	1.0	False
717.263	0.0	2Suff w/o Lat.	22	717263	sensibly	1.0	0.0	False
718.68	0.0	2Suff w/ Lat.	21	718680	presumably	1.0	0.0	False
719.78	0.0	2Suff RealStemNW	25	719780	virtuerize	0.0	1.0	False
721.272	0.0	1Suff w/o Lat.	12	721272	artful	1.0	1.0	True
722.673	0.0	2Suff RealStemNW	25	722673	selectfully	0.0	0.0	True
724.231	0.0	0Suff NW	4	724231	cank	0.0	1.0	False
725.24	0.0	0Suff w/o Lat.	2	725240	collect	1.0	0.0	False
726.24	0.0	2Suff RealStemNW	25	726240	expressmental	0.0	1.0	False
727.558	0.0	0Suff NW	4	727558	styke	0.0	1.0	False
728.608	0.0	1Suff RealStemNW	15	728608	assertful	0.0	0.0	True
729.717	0.0	0Suff w/o Lat.	2	729717	care	1.0	0.0	False
731.692	0.0	2Suff PseudoStemNW	24	731692	efforniveness	0.0	1.0	False
733.043	0.0	1Suff w/o Lat.	12	733043	beautiful	1.0	0.0	False
733.926	0.0	1Suff w/o Lat.	12	733926	modulate	1.0	1.0	True
735.335	0.0	2Suff w/o Lat.	22	735335	attractively	1.0	0.0	False
736.627	0.0	2Suff Composite	23	736627	identical	1.0	0.0	False
737.786	0.0	2Suff Composite	23	737786	computation	1.0	0.0	False
739.386	0.0	1Suff RealStemNW	15	739386	virtance	0.0	1.0	False
740.445	0.0	1Suff RealStemNW	15	740445	effectful	0.0	0.0	True
741.554	0.0	2Suff w/o Lat.	22	741554	noticeably	1.0	0.0	False
742.604	0.0	2Suff w/ Lat.	21	742604	perfectionist	1.0	0.0	False
743.637	0.0	2Suff PseudoStemNW	24	743637	flivitualism	0.0	1.0	False
744.738	0.0	1Suff w/o Lat.	12	744738	continuous	1.0	0.0	False
746.122	0.0	0Suff w/ Lat.	1	746122	compose	1.0	0.0	False
747.322	0.0	2Suff PseudoStemNW	24	747322	comfernably	0.0	1.0	False
748.597	0.0	2Suff PseudoStemNW	24	748597	prosodural	0.0	1.0	False
749.673	0.0	0Suff NW	4	749673	clade	0.0	1.0	False
750.756	0.0	1Suff w/o Lat.	12	750756	expansive	1.0	0.0	False
752.499	0.0	2Suff PseudoStemNW	24	752499	procation	0.0	1.0	False
753.724	0.0	1Suff PseudoStemNW	14	753724	selvual	0.0	1.0	False
754.741	0.0	1Suff w/o Lat.	12	754741	traditional	1.0	0.0	False
755.95	0.0	1Suff w/o Lat.	12	755950	comical	1.0	0.0	False
756.992	0.0	0Suff NW	4	756992	cronition	0.0	1.0	False
758.084	0.0	2Suff w/o Lat.	22	758084	brutalize	1.0	1.0	True
760.159	0.0	1Suff w/o Lat.	12	760159	excellent	1.0	0.0	False
761.176	0.0	2Suff w/o Lat.	22	761176	needlessly	1.0	0.0	False
762.16	0.0	2Suff w/o Lat.	22	762160	drunkenly	1.0	0.0	False
763.852	0.0	1Suff RealStemNW	15	763852	confidious	0.0	1.0	False
764.977	0.0	2Suff PseudoStemNW	24	764977	trithfully	0.0	1.0	False
766.47	0.0	1Suff PseudoStemNW	14	766470	mocondary	0.0	1.0	False
767.528	0.0	0Suff w/ Lat.	1	767528	conduct	1.0	0.0	False
768.595	0.0	2Suff PseudoStemNW	24	768595	hettlessly	0.0	1.0	False
769.729	0.0	2Suff w/o Lat.	22	769729	nationalist	1.0	0.0	False
771.246	0.0	0Suff w/o Lat.	2	771246	lust	1.0	0.0	False
772.255	0.0	2Suff PseudoStemNW	24	772255	murpifully	0.0	1.0	False
773.713	0.0	1Suff w/o Lat.	12	773713	selfish	1.0	0.0	False
774.789	0.0	0Suff w/o Lat.	2	774789	magic	1.0	0.0	False
775.956	0.0	1Suff w/o Lat.	12	775956	purify	1.0	0.0	False
777.023	0.0	1Suff w/ Lat.	11	777023	objective	1.0	0.0	False
777.973	0.0	0Suff NW	4	777973	omlic	0.0	1.0	False
778.948	0.0	0Suff w/o Lat.	2	778948	flex	1.0	0.0	False
779.757	0.0	2Suff w/o Lat.	22	779757	helplessness	1.0	0.0	False
780.716	0.0	0Suff NW	4	780716	simn	0.0	1.0	False
781.766	0.0	1Suff w/o Lat.	12	781766	mournful	1.0	0.0	False
782.733	0.0	2Suff RealStemNW	25	782733	admirical	0.0	1.0	False
784.017	0.0	0Suff NW	4	784017	victap	0.0	1.0	False
785.025	0.0	0Suff w/o Lat.	2	785025	tire	1.0	1.0	True
785.892	0.0	1Suff RealStemNW	15	785892	modulion	0.0	1.0	False
787.743	0.0	0Suff NW	4	787743	massien	0.0	1.0	False
788.685	0.0	1Suff RealStemNW	15	788685	conductful	0.0	1.0	False
790.235	0.0	2Suff w/o Lat.	22	790235	respectively	1.0	0.0	False
791.211	0.0	2Suff PseudoStemNW	24	791211	coyimally	0.0	1.0	False
792.294	0.0	2Suff w/o Lat.	22	792294	sharpener	1.0	0.0	False
793.411	0.0	2Suff w/o Lat.	22	793411	brutality	1.0	0.0	False
794.503	0.0	2Suff PseudoStemNW	24	794503	cheherably	0.0	1.0	False
795.52	0.0	2Suff w/o Lat.	22	795520	magically	1.0	0.0	False
796.412	0.0	1Suff PseudoStemNW	14	796412	rebuinal	0.0	1.0	False
797.429	0.0	0Suff NW	4	797429	arbub	0.0	1.0	False
798.604	0.0	0Suff NW	4	798604	mourd	0.0	1.0	False
799.521	0.0	2Suff PseudoStemNW	24	799521	herfalist	0.0	1.0	False
800.355	0.0	2Suff RealStemNW	25	800355	embarkfully	0.0	1.0	False
801.855	0.0	2Suff RealStemNW	25	801855	commerceional	0.0	1.0	False
803.764	0.0	2Suff w/o Lat.	22	803764	dangerously	1.0	0.0	False
804.956	0.0	2Suff PseudoStemNW	24	804956	janiability	0.0	1.0	False
806.015	0.0	2Suff w/ Lat.	21	806015	effectively	1.0	0.0	False
807.307	0.0	2Suff w/o Lat.	22	807307	joyously	1.0	0.0	False
808.991	0.0	2Suff RealStemNW	25	808991	clinicical	0.0	1.0	False
811.292	0.0	1Suff w/o Lat.	12	811292	feverish	1.0	0.0	False
812.492	0.0	0Suff NW	4	812492	nolave	0.0	1.0	False
813.584	0.0	1Suff PseudoStemNW	14	813584	coyimal	0.0	1.0	False
814.443	0.0	2Suff PseudoStemNW	24	814443	jistification	0.0	1.0	False
815.71	0.0	2Suff w/o Lat.	22	815710	creatively	1.0	0.0	False
816.977	0.0	2Suff RealStemNW	25	816977	ceaseiously	0.0	1.0	False
818.419	0.0	2Suff w/o Lat.	22	818419	passionately	1.0	0.0	False
819.494	0.0	2Suff PseudoStemNW	24	819494	seetably	0.0	1.0	False
820.711	0.0	2Suff PseudoStemNW	24	820711	grearively	0.0	1.0	False
821.637	0.0	1Suff w/o Lat.	12	821637	broker	1.0	0.0	False
822.629	0.0	1Suff PseudoStemNW	14	822629	gunderful	0.0	1.0	False
823.629	0.0	0Suff w/o Lat.	2	823629	help	1.0	0.0	False
824.387	0.0	0Suff w/o Lat.	2	824387	continue	1.0	0.0	False
825.938	0.0	1Suff w/o Lat.	12	825938	humanist	1.0	0.0	False
828.189	0.0	1Suff w/o Lat.	12	828189	passionate	1.0	0.0	False
829.147	0.0	2Suff PseudoStemNW	24	829147	jistifiable	0.0	1.0	False
830.348	0.0	2Suff RealStemNW	25	830348	drunkoral	0.0	1.0	False
831.44	0.0	2Suff w/o Lat.	22	831440	commercially	1.0	0.0	False
832.707	0.0	0Suff w/o Lat.	2	832707	heart	1.0	0.0	False
833.615	0.0	0Suff NW	4	833615	lond	0.0	1.0	False
834.632	0.0	0Suff w/ Lat.	1	834632	exclude	1.0	0.0	False
836.108	0.0	1Suff PseudoStemNW	14	836108	comfernable	0.0	1.0	False
837.191	0.0	1Suff PseudoStemNW	14	837191	bleadful	0.0	1.0	False
838.625	0.0	0Suff w/o Lat.	2	838625	measure	1.0	0.0	False
839.734	0.0	2Suff PseudoStemNW	24	839734	massienately	0.0	1.0	False
840.826	0.0	1Suff w/o Lat.	12	840826	truthful	1.0	0.0	False
842.035	0.0	1Suff RealStemNW	15	842035	selectful	0.0	0.0	True
846.853	0.0	2Suff w/o Lat.	22	846853	joyfully	1.0	0.0	False
847.953	0.0	0Suff w/o Lat.	2	847953	dread	1.0	0.0	False
849.02	0.0	2Suff w/o Lat.	22	849020	luckily	1.0	0.0	False
850.029	0.0	0Suff NW	4	850029	combere	0.0	1.0	False
850.962	0.0	2Suff Composite	23	850962	embarkation	1.0	1.0	True
852.188	0.0	0Suff NW	4	852188	allend	0.0	1.0	False
853.246	0.0	2Suff w/o Lat.	22	853246	activist	1.0	0.0	False
854.18	0.0	2Suff RealStemNW	25	854180	stylional	0.0	1.0	False
855.297	0.0	0Suff w/o Lat.	2	855297	prefer	1.0	0.0	False
856.206	0.0	1Suff w/o Lat.	12	856206	various	1.0	0.0	False
857.339	0.0	1Suff w/o Lat.	12	857339	vaccinate	1.0	0.0	False
858.331	0.0	0Suff w/o Lat.	2	858331	proceed	1.0	0.0	False
859.24	0.0	2Suff PseudoStemNW	24	859240	abadilionist	0.0	1.0	False
860.207	0.0	0Suff NW	4	860207	rebuin	0.0	1.0	False
861.232	0.0	1Suff PseudoStemNW	14	861232	londly	0.0	1.0	False
862.157	0.0	2Suff w/o Lat.	22	862157	measurably	1.0	1.0	True
863.091	0.0	1Suff PseudoStemNW	14	863091	comburer	0.0	1.0	False
863.991	0.0	2Suff RealStemNW	25	863991	identally	0.0	1.0	False
865.25	0.0	2Suff w/o Lat.	22	865250	carefully	1.0	0.0	False
866.2	0.0	2Suff RealStemNW	25	866200	instinctfully	0.0	1.0	False
867.951	0.0	1Suff w/ Lat.	11	867951	institution	1.0	0.0	False
869.101	0.0	1Suff w/o Lat.	12	869101	righteous	1.0	0.0	False
870.16	0.0	2Suff PseudoStemNW	24	870160	flivitualize	0.0	1.0	False
871.235	0.0	2Suff PseudoStemNW	24	871235	perfallionism	0.0	1.0	False
872.261	0.0	2Suff RealStemNW	25	872261	fooliveness	0.0	1.0	False
873.211	0.0	1Suff RealStemNW	15	873211	purant	0.0	1.0	False
874.628	0.0	2Suff RealStemNW	25	874628	artional	0.0	1.0	False
875.678	0.0	0Suff NW	4	875678	moolure	0.0	1.0	False
876.57	0.0	1Suff RealStemNW	15	876570	causic	0.0	1.0	False
877.554	0.0	2Suff RealStemNW	25	877554	vulgarilessly	0.0	1.0	False
878.554	0.0	2Suff w/o Lat.	22	878554	feverishly	1.0	0.0	False
879.771	0.0	2Suff w/o Lat.	22	879771	noisily	1.0	0.0	False
880.93	0.0	1Suff w/ Lat.	11	880930	objection	1.0	0.0	False
881.872	0.0	0Suff w/ Lat.	1	881872	inspire	1.0	0.0	False
882.939	0.0	2Suff w/ Lat.	21	882939	conclusively	1.0	0.0	False
884.123	0.0	1Suff RealStemNW	15	884123	careive	0.0	1.0	False
885.34	0.0	2Suff RealStemNW	25	885340	prophetionist	0.0	1.0	False
886.315	0.0	2Suff w/o Lat.	22	886315	falsification	1.0	0.0	False
887.932	0.0	1Suff PseudoStemNW	14	887932	franical	0.0	1.0	False
889.324	0.0	2Suff w/o Lat.	22	889324	relentlessly	1.0	0.0	False
890.433	0.0	0Suff NW	4	890433	coyim	0.0	1.0	False
891.442	0.0	1Suff RealStemNW	15	891442	creatful	0.0	1.0	False
892.467	0.0	0Suff NW	4	892467	elpard	0.0	1.0	False
893.3	0.0	0Suff NW	4	893300	effern	0.0	1.0	False
894.309	0.0	2Suff PseudoStemNW	24	894309	tistlessly	0.0	1.0	False
895.526	0.0	0Suff w/o Lat.	2	895526	beauty	1.0	0.0	False
897.56	0.0	2Suff RealStemNW	25	897560	objectfully	0.0	0.0	True
898.644	0.0	2Suff Composite	23	898644	unification	1.0	0.0	False
900.694	0.0	2Suff w/o Lat.	22	900694	causality	1.0	1.0	True
903.045	0.0	0Suff w/o Lat.	2	903045	confide	1.0	0.0	False
904.287	0.0	0Suff NW	4	904287	mympol	0.0	0.0	True
905.229	0.0	2Suff PseudoStemNW	24	905229	selvuality	0.0	1.0	False
906.446	0.0	2Suff RealStemNW	25	906446	expansishness	0.0	1.0	False
908.839	0.0	1Suff w/o Lat.	12	908839	needless	1.0	0.0	False
909.756	0.0	2Suff w/o Lat.	22	909756	loveliness	1.0	0.0	False
911.94	0.0	2Suff w/o Lat.	22	911940	senselessly	1.0	n/a	False
914.34	0.0	1Suff PseudoStemNW	14	914340	brealtless	0.0	1.0	False
915.691	0.0	1Suff RealStemNW	15	915691	drunkor	0.0	1.0	False
916.833	0.0	0Suff NW	4	916833	spip	0.0	1.0	False
918.0	0.0	0Suff NW	4	918000	precuke	0.0	1.0	False
918.958	0.0	0Suff w/o Lat.	2	918958	drunk	1.0	0.0	False
919.975	0.0	1Suff w/o Lat.	12	919975	hasty	1.0	0.0	False
921.001	0.0	1Suff w/o Lat.	12	921001	optical	1.0	0.0	False
922.076	0.0	0Suff NW	4	922076	inglinite	0.0	1.0	False
923.11	0.0	1Suff PseudoStemNW	14	923110	expredive	0.0	1.0	False
924.16	0.0	1Suff PseudoStemNW	14	924160	simnify	0.0	1.0	False
925.16	0.0	2Suff RealStemNW	25	925160	computitely	0.0	1.0	False
926.836	0.0	0Suff NW	4	926836	tist	0.0	1.0	False
927.894	0.0	2Suff PseudoStemNW	24	927894	lurtilizer	0.0	1.0	False
928.82	0.0	0Suff NW	4	928820	contitum	0.0	1.0	False
929.828	0.0	0Suff w/o Lat.	2	929828	expand	1.0	0.0	False
930.779	0.0	0Suff w/ Lat.	1	930779	perfect	1.0	0.0	False
931.737	0.0	2Suff PseudoStemNW	24	931737	mourdfully	0.0	1.0	False
932.938	0.0	2Suff w/o Lat.	22	932938	variously	1.0	0.0	False
934.038	0.0	1Suff PseudoStemNW	14	934038	rincheous	0.0	1.0	False
935.547	0.0	1Suff w/o Lat.	12	935547	helpless	1.0	0.0	False
937.006	0.0	2Suff PseudoStemNW	24	937006	ewilsential	0.0	1.0	False
938.039	0.0	2Suff Composite	23	938039	hierarchical	1.0	0.0	False
939.698	0.0	2Suff Composite	23	939698	purification	1.0	0.0	False
940.873	0.0	1Suff w/o Lat.	12	940873	national	1.0	0.0	False
941.907	0.0	2Suff RealStemNW	25	941907	senseiously	0.0	1.0	False
943.124	0.0	1Suff PseudoStemNW	14	943124	awnist	0.0	1.0	False
944.316	0.0	2Suff w/o Lat.	22	944316	modulation	1.0	1.0	True
946.042	0.0	0Suff w/o Lat.	2	946042	fever	1.0	0.0	False
947.234	0.0	2Suff PseudoStemNW	24	947234	movectistic	0.0	1.0	False
948.409	0.0	1Suff PseudoStemNW	14	948409	shacten	0.0	1.0	False
949.368	0.0	1Suff PseudoStemNW	14	949368	crerical	0.0	1.0	False
950.285	0.0	2Suff w/o Lat.	22	950285	justifiable	1.0	0.0	False
951.577	0.0	0Suff NW	4	951577	conspode	0.0	1.0	False
952.594	0.0	2Suff PseudoStemNW	24	952594	hettlessness	0.0	1.0	False
953.919	0.0	1Suff RealStemNW	15	953919	careable	0.0	1.0	False
955.228	0.0	2Suff Composite	23	955228	orientation	1.0	1.0	True
956.428	0.0	0Suff NW	4	956428	creric	0.0	1.0	False
957.345	0.0	2Suff PseudoStemNW	24	957345	ludsily	0.0	1.0	False
958.22	0.0	1Suff w/o Lat.	12	958220	fearful	1.0	0.0	False
959.254	0.0	2Suff RealStemNW	25	959254	selfiousness	0.0	1.0	False
961.313	0.0	1Suff RealStemNW	15	961313	modernate	0.0	1.0	False
962.705	0.0	2Suff w/o Lat.	22	962705	carelessness	1.0	0.0	False
964.139	0.0	1Suff w/o Lat.	12	964139	regional	1.0	0.0	False
965.073	0.0	0Suff w/o Lat.	2	965073	herb	1.0	0.0	False
966.006	0.0	0Suff NW	4	966006	feam	0.0	1.0	False
967.198	0.0	0Suff NW	4	967198	fortord	0.0	1.0	False
968.165	0.0	1Suff PseudoStemNW	14	968165	booftiful	0.0	1.0	False
969.299	0.0	1Suff w/o Lat.	12	969299	courageous	1.0	0.0	False
970.366	0.0	2Suff RealStemNW	25	970366	sensator	0.0	1.0	False
971.425	0.0	2Suff RealStemNW	25	971425	civilability	0.0	0.0	True
972.808	0.0	0Suff w/o Lat.	2	972808	argue	1.0	0.0	False
974.35	0.0	2Suff RealStemNW	25	974350	foolality	0.0	1.0	False
975.484	0.0	2Suff w/o Lat.	22	975484	selfishness	1.0	0.0	False
976.576	0.0	1Suff w/o Lat.	12	976576	respective	1.0	0.0	False
977.785	0.0	2Suff RealStemNW	25	977785	masterively	0.0	1.0	False
978.894	0.0	2Suff w/o Lat.	22	978894	activity	1.0	0.0	False
979.919	0.0	2Suff RealStemNW	25	979919	respectfully	0.0	0.0	True
980.944	0.0	1Suff PseudoStemNW	14	980944	precukable	0.0	1.0	False
981.953	0.0	0Suff NW	4	981953	retend	0.0	1.0	False
983.228	0.0	2Suff Composite	23	983228	paradoxical	1.0	0.0	False
984.404	0.0	1Suff w/o Lat.	12	984404	causal	1.0	0.0	False
985.487	0.0	2Suff RealStemNW	25	985487	nullifilessly	0.0	1.0	False
986.529	0.0	1Suff w/o Lat.	12	986529	variable	1.0	0.0	False
990.264	0.0	2Suff PseudoStemNW	24	990264	spippery	0.0	1.0	False
991.364	0.0	2Suff PseudoStemNW	24	991364	onwertionable	0.0	1.0	False
992.514	0.0	1Suff PseudoStemNW	14	992514	recrernive	0.0	1.0	False
993.498	0.0	1Suff RealStemNW	15	993498	provisate	0.0	1.0	False
994.482	0.0	0Suff NW	4	994482	luds	0.0	1.0	False
995.432	0.0	1Suff RealStemNW	15	995432	variment	0.0	1.0	False
996.382	0.0	2Suff w/o Lat.	22	996382	heartily	1.0	0.0	False
997.291	0.0	0Suff w/o Lat.	2	997291	fruit	1.0	0.0	False
998.108	0.0	2Suff RealStemNW	25	998108	neediously	0.0	1.0	False
999.308	0.0	0Suff w/o Lat.	2	999308	mourn	1.0	0.0	False
1000.45	0.0	0Suff NW	4	1000450	traphet	0.0	1.0	False
1001.359	0.0	2Suff RealStemNW	25	1001359	unifilessly	0.0	1.0	False
1002.551	0.0	0Suff NW	4	1002551	jany	0.0	1.0	False
1003.718	0.0	0Suff w/o Lat.	2	1003718	class	1.0	0.0	False
1004.693	0.0	0Suff NW	4	1004693	pimer	0.0	1.0	False
1005.685	0.0	1Suff RealStemNW	15	1005685	helpable	0.0	1.0	False
1007.144	0.0	2Suff PseudoStemNW	24	1007144	fortorately	0.0	1.0	False
1008.186	0.0	0Suff NW	4	1008186	boofty	0.0	1.0	False
1009.195	0.0	0Suff NW	4	1009195	indolsty	0.0	1.0	False
1010.32	0.0	1Suff w/o Lat.	12	1010320	owner	1.0	0.0	False
1011.212	0.0	2Suff w/ Lat.	21	1011212	exclusiveness	1.0	0.0	False
1013.071	0.0	2Suff w/o Lat.	22	1013071	nationally	1.0	0.0	False
1015.363	0.0	2Suff RealStemNW	25	1015363	noticeator	0.0	1.0	False
1016.405	0.0	2Suff RealStemNW	25	1016405	farcally	0.0	1.0	False
1017.497	0.0	1Suff w/o Lat.	12	1017497	sensual	1.0	0.0	False
1018.639	0.0	2Suff RealStemNW	25	1018639	tacticical	0.0	0.0	True
1019.74	0.0	1Suff RealStemNW	15	1019740	nationic	0.0	1.0	False
1021.757	0.0	1Suff RealStemNW	15	1021757	momentish	0.0	1.0	False
1023.099	0.0	0Suff w/o Lat.	2	1023099	right	1.0	0.0	False
1024.158	0.0	0Suff w/o Lat.	2	1024158	abolish	1.0	0.0	False
1025.133	0.0	0Suff NW	4	1025133	dester	0.0	1.0	False
1026.217	0.0	2Suff RealStemNW	25	1026217	causional	0.0	1.0	False
1027.642	0.0	2Suff RealStemNW	25	1027642	presumator	0.0	1.0	False
1028.826	0.0	0Suff w/o Lat.	2	1028826	attract	1.0	0.0	False
1029.709	0.0	0Suff NW	4	1029709	feal	0.0	1.0	False
1030.726	0.0	2Suff w/o Lat.	22	1030726	clinically	1.0	0.0	False
1032.268	0.0	2Suff PseudoStemNW	24	1032268	excrodively	0.0	1.0	False
1033.319	0.0	2Suff PseudoStemNW	24	1033319	griedily	0.0	1.0	False
1034.477	0.0	1Suff w/ Lat.	11	1034477	explosive	1.0	0.0	False
1035.519	0.0	2Suff RealStemNW	25	1035519	endiously	0.0	1.0	False
1036.511	0.0	1Suff w/o Lat.	12	1036511	joyful	1.0	0.0	False
1037.478	0.0	2Suff RealStemNW	25	1037478	useiously	0.0	1.0	False
1038.479	0.0	0Suff w/o Lat.	2	1038479	cycle	1.0	1.0	True
1039.337	0.0	2Suff PseudoStemNW	24	1039337	retendlessly	0.0	1.0	False
1040.521	0.0	2Suff w/o Lat.	22	1040521	creativity	1.0	0.0	False
1041.705	0.0	0Suff NW	4	1041705	flivit	0.0	0.0	True
1042.68	0.0	2Suff Composite	23	1042680	classification	1.0	0.0	False
1043.622	0.0	2Suff PseudoStemNW	24	1043622	comburation	0.0	1.0	False
1044.797	0.0	0Suff w/o Lat.	2	1044797	second	1.0	0.0	False
1045.889	0.0	2Suff w/o Lat.	22	1045889	courageously	1.0	0.0	False
1047.065	0.0	1Suff RealStemNW	15	1047065	falsant	0.0	1.0	False
1048.148	0.0	2Suff w/o Lat.	22	1048148	humanistic	1.0	n/a	False
1050.557	0.0	2Suff w/o Lat.	22	1050557	powerfully	1.0	0.0	False
1051.599	0.0	2Suff w/o Lat.	22	1051599	cyclical	1.0	0.0	False
1053.05	0.0	0Suff NW	4	1053050	faice	0.0	0.0	True
1053.983	0.0	1Suff w/o Lat.	12	1053983	instinctive	1.0	0.0	False
1054.925	0.0	1Suff PseudoStemNW	14	1054925	healty	0.0	1.0	False
1056.226	0.0	1Suff RealStemNW	15	1056226	powerive	0.0	1.0	False
1057.351	0.0	0Suff w/o Lat.	2	1057351	admire	1.0	0.0	False
1058.343	0.0	0Suff w/o Lat.	2	1058343	broke	1.0	0.0	False
1059.402	0.0	1Suff w/o Lat.	12	1059402	personal	1.0	0.0	False
1060.444	0.0	0Suff w/ Lat.	1	1060444	effect	1.0	0.0	False
1061.327	0.0	2Suff w/o Lat.	22	1061327	suitability	1.0	0.0	False
1062.519	0.0	1Suff RealStemNW	15	1062519	victimist	0.0	0.0	True
1063.528	0.0	2Suff w/o Lat.	22	1063528	mournfully	1.0	0.0	False
1064.578	0.0	2Suff RealStemNW	25	1064578	signiousness	0.0	1.0	False
1066.229	0.0	2Suff RealStemNW	25	1066229	inspiratality	0.0	1.0	False
1067.671	0.0	0Suff NW	4	1067671	lurtile	0.0	1.0	False
1068.655	0.0	2Suff w/o Lat.	22	1068655	customarily	1.0	1.0	True
1069.73	0.0	2Suff Composite	23	1069730	farcical	1.0	1.0	True
1071.647	0.0	2Suff Composite	23	1071647	allegorical	1.0	0.0	False
1073.339	0.0	1Suff w/o Lat.	12	1073339	falsify	1.0	0.0	False
1074.348	0.0	0Suff NW	4	1074348	lums	0.0	1.0	False
1075.257	0.0	1Suff PseudoStemNW	14	1075257	coatageous	0.0	1.0	False
1076.54	0.0	1Suff PseudoStemNW	14	1076540	inflisation	0.0	1.0	False
1077.557	0.0	2Suff w/o Lat.	22	1077557	brokerage	1.0	0.0	False
1078.741	0.0	2Suff PseudoStemNW	24	1078741	comborition	0.0	1.0	False
1080.317	0.0	1Suff w/o Lat.	12	1080317	comfortable	1.0	0.0	False
1081.384	0.0	1Suff w/o Lat.	12	1081384	dreadful	1.0	0.0	False
1082.959	0.0	1Suff RealStemNW	15	1082959	composian	0.0	1.0	False
1084.334	0.0	1Suff w/o Lat.	12	1084334	spiritual	1.0	0.0	False
1085.86	0.0	2Suff w/o Lat.	22	1085860	collectively	1.0	0.0	False
1087.035	0.0	1Suff PseudoStemNW	14	1087035	esressive	0.0	1.0	False
1088.119	0.0	1Suff RealStemNW	15	1088119	kinden	0.0	1.0	False
1089.578	0.0	0Suff w/o Lat.	2	1089578	art	1.0	0.0	False
1090.47	0.0	0Suff NW	4	1090470	cedil	0.0	1.0	False
1091.303	0.0	1Suff w/o Lat.	12	1091303	methodical	1.0	0.0	False
1092.354	0.0	1Suff w/o Lat.	12	1092354	argument	1.0	0.0	False
1093.337	0.0	1Suff RealStemNW	15	1093337	fertilist	0.0	1.0	False
1094.788	0.0	1Suff w/o Lat.	12	1094788	stylist	1.0	0.0	False
1095.863	0.0	2Suff Composite	23	1095863	identification	1.0	0.0	False
1097.238	0.0	1Suff PseudoStemNW	14	1097238	nolfy	0.0	1.0	False
1098.155	0.0	1Suff PseudoStemNW	14	1098155	obwertive	0.0	1.0	False
1099.297	0.0	1Suff w/o Lat.	12	1099297	tireless	1.0	0.0	False
1100.531	0.0	2Suff w/o Lat.	22	1100531	selflessness	1.0	0.0	False
1101.657	0.0	1Suff RealStemNW	15	1101657	tireable	0.0	1.0	False
1102.899	0.0	2Suff RealStemNW	25	1102899	brutional	0.0	1.0	False
1103.891	0.0	1Suff w/o Lat.	12	1103891	selfless	1.0	0.0	False
1105.091	0.0	2Suff PseudoStemNW	24	1105091	hettfully	0.0	1.0	False
1106.016	0.0	0Suff NW	4	1106016	exprede	0.0	1.0	False
1107.008	0.0	0Suff w/o Lat.	2	1107008	brute	1.0	1.0	True
1107.875	0.0	1Suff w/o Lat.	12	1107875	symbolic	1.0	0.0	False
1108.834	0.0	0Suff NW	4	1108834	vetcine	0.0	1.0	False
1109.884	0.0	2Suff w/o Lat.	22	1109884	ownership	1.0	0.0	False
1111.059	0.0	1Suff RealStemNW	15	1111059	fortunion	0.0	1.0	False
1112.185	0.0	1Suff w/ Lat.	11	1112185	composite	1.0	0.0	False
1113.702	0.0	2Suff RealStemNW	25	1113702	flexfulness	0.0	1.0	False
1115.019	0.0	2Suff Composite	23	1115019	solipsistic	1.0	1.0	True
1115.986	0.0	2Suff w/o Lat.	22	1115986	argumentative	1.0	0.0	False
1117.253	0.0	2Suff RealStemNW	25	1117253	creatously	0.0	1.0	False
1118.42	0.0	0Suff w/ Lat.	1	1118420	explode	1.0	0.0	False
1119.629	0.0	1Suff w/o Lat.	12	1119629	commercial	1.0	0.0	False
1120.796	0.0	2Suff w/ Lat.	21	1120796	exclusively	1.0	0.0	False
1121.846	0.0	1Suff w/o Lat.	12	1121846	cyclic	1.0	1.0	True
1123.196	0.0	0Suff w/o Lat.	2	1123196	attend	1.0	0.0	False
1125.072	0.0	2Suff RealStemNW	25	1125072	useiveness	0.0	1.0	False
1126.314	0.0	2Suff w/o Lat.	22	1126314	significance	1.0	0.0	False
1127.815	0.0	2Suff PseudoStemNW	24	1127815	eschessionist	0.0	0.0	True
1128.923	0.0	1Suff w/o Lat.	12	1128923	dangerous	1.0	0.0	False
1133.241	0.0	0Suff NW	4	1133241	arp	0.0	1.0	False
1134.258	0.0	1Suff PseudoStemNW	14	1134258	lumsy	0.0	1.0	False
1135.567	0.0	2Suff w/o Lat.	22	1135567	helplessly	1.0	0.0	False
1136.534	0.0	1Suff PseudoStemNW	14	1136534	cuppomary	0.0	1.0	False
1137.626	0.0	2Suff w/o Lat.	22	1137626	foolishness	1.0	0.0	False
1138.893	0.0	1Suff PseudoStemNW	14	1138893	broler	0.0	1.0	False
1140.26	0.0	2Suff w/o Lat.	22	1140260	admirably	1.0	0.0	False
1141.427	0.0	1Suff w/o Lat.	12	1141427	noisy	1.0	0.0	False
1142.452	0.0	1Suff RealStemNW	15	1142452	cyclal	0.0	1.0	False
1143.586	0.0	0Suff NW	4	1143586	esress	0.0	1.0	False
1144.511	0.0	1Suff PseudoStemNW	14	1144511	onnention	0.0	1.0	False
1145.462	0.0	2Suff RealStemNW	25	1145462	excessfully	0.0	0.0	True
1146.679	0.0	2Suff RealStemNW	25	1146679	momentantly	0.0	1.0	False
1148.513	0.0	2Suff PseudoStemNW	24	1148513	arbumentative	0.0	1.0	False
1149.638	0.0	1Suff w/ Lat.	11	1149638	conductive	1.0	1.0	True
1151.864	0.0	2Suff PseudoStemNW	24	1151864	flivitually	0.0	1.0	False
1153.064	0.0	0Suff w/o Lat.	2	1153064	nation	1.0	0.0	False
1154.106	0.0	1Suff w/o Lat.	12	1154106	cultural	1.0	0.0	False
1154.981	0.0	2Suff Composite	23	1154981	limitation	1.0	0.0	False
1156.115	0.0	2Suff RealStemNW	25	1156115	effortiously	0.0	1.0	False
1157.757	0.0	0Suff w/ Lat.	1	1157757	excess	1.0	0.0	False
1159.066	0.0	2Suff PseudoStemNW	24	1159066	comberatively	0.0	1.0	False
1160.175	0.0	1Suff w/o Lat.	12	1160175	measurable	1.0	0.0	False
1161.208	0.0	0Suff NW	4	1161208	pipson	0.0	1.0	False
1162.217	0.0	2Suff Composite	23	1162217	victimization	1.0	0.0	False
1164.167	0.0	2Suff w/o Lat.	22	1164167	monumentally	1.0	0.0	False
1165.926	0.0	1Suff w/o Lat.	12	1165926	modernist	1.0	0.0	False
1167.002	0.0	0Suff NW	4	1167002	healt	0.0	1.0	False
1168.102	0.0	2Suff w/ Lat.	21	1168102	explosively	1.0	0.0	False
1169.277	0.0	1Suff RealStemNW	15	1169277	stylify	0.0	1.0	False
1170.803	0.0	0Suff NW	4	1170803	ind	0.0	1.0	False
1172.145	0.0	2Suff PseudoStemNW	24	1172145	provacional	0.0	1.0	False
1173.304	0.0	2Suff PseudoStemNW	24	1173304	selvation	0.0	1.0	False
1174.254	0.0	2Suff RealStemNW	25	1174254	legalability	0.0	1.0	False
1176.296	0.0	2Suff PseudoStemNW	24	1176296	melidification	0.0	1.0	False
1177.28	0.0	2Suff PseudoStemNW	24	1177280	awnfully	0.0	1.0	False
1178.239	0.0	0Suff w/o Lat.	2	1178239	compute	1.0	1.0	True
1179.305	0.0	0Suff NW	4	1179305	provace	0.0	1.0	False
1180.289	0.0	1Suff w/o Lat.	12	1180289	rightful	1.0	0.0	False
1181.256	0.0	2Suff w/o Lat.	22	1181256	secondarily	1.0	0.0	False
1182.773	0.0	2Suff Composite	23	1182773	voyeuristic	1.0	0.0	False
1184.374	0.0	2Suff w/o Lat.	22	1184374	civilization	1.0	0.0	False
1185.432	0.0	1Suff w/o Lat.	12	1185432	ceaseless	1.0	0.0	False
1186.574	0.0	2Suff w/o Lat.	22	1186574	expansiveness	1.0	0.0	False
1187.825	0.0	2Suff w/o Lat.	22	1187825	activate	1.0	0.0	False
1188.858	0.0	0Suff w/o Lat.	2	1188858	instinct	1.0	0.0	False
1189.784	0.0	2Suff PseudoStemNW	24	1189784	paragewical	0.0	1.0	False
1190.834	0.0	0Suff w/o Lat.	2	1190834	tactic	1.0	0.0	False
1191.909	0.0	2Suff w/o Lat.	22	1191909	computerize	1.0	0.0	False
1193.076	0.0	2Suff w/o Lat.	22	1193076	selectivity	1.0	0.0	False
1194.293	0.0	0Suff NW	4	1194293	slex	0.0	1.0	False
1195.419	0.0	2Suff w/o Lat.	22	1195419	fruitlessly	1.0	0.0	False
1197.286	0.0	0Suff NW	4	1197286	rinch	0.0	1.0	False
1198.511	0.0	2Suff w/ Lat.	21	1198511	effectiveness	1.0	0.0	False
1199.587	0.0	2Suff w/o Lat.	22	1199587	spiritualism	1.0	0.0	False
1200.612	0.0	2Suff RealStemNW	25	1200612	ordinfully	0.0	1.0	False
1201.887	0.0	1Suff RealStemNW	15	1201887	foolory	0.0	1.0	False
1202.788	0.0	2Suff w/o Lat.	22	1202788	abolitionist	1.0	1.0	True
1204.247	0.0	2Suff w/o Lat.	22	1204247	regionally	1.0	0.0	False
1205.564	0.0	2Suff Composite	23	1205564	whimsical	1.0	0.0	False
1206.739	0.0	2Suff PseudoStemNW	24	1206739	canklessly	0.0	1.0	False
1207.906	0.0	2Suff RealStemNW	25	1207906	industriantly	0.0	1.0	False
1209.732	0.0	1Suff w/o Lat.	12	1209732	critical	1.0	0.0	False
1210.665	0.0	1Suff PseudoStemNW	14	1210665	awnful	0.0	1.0	False
1211.691	0.0	2Suff w/o Lat.	22	1211691	comfortably	1.0	0.0	False
1212.674	0.0	1Suff w/o Lat.	12	1212674	comparative	1.0	0.0	False
1213.774	0.0	2Suff PseudoStemNW	24	1213774	shactener	0.0	1.0	False
1214.741	0.0	0Suff NW	4	1214741	shact	0.0	1.0	False
1215.608	0.0	1Suff RealStemNW	15	1215608	justant	0.0	1.0	False
1216.567	0.0	0Suff NW	4	1216567	assork	0.0	1.0	False
1217.417	0.0	0Suff w/o Lat.	2	1217417	region	1.0	1.0	True
1218.334	0.0	0Suff w/o Lat.	2	1218334	victim	1.0	0.0	False
1219.26	0.0	0Suff w/o Lat.	2	1219260	sense	1.0	0.0	False
1220.268	0.0	2Suff PseudoStemNW	24	1220268	atstartively	0.0	1.0	False
1221.352	0.0	2Suff PseudoStemNW	24	1221352	arpivity	0.0	1.0	False
1222.385	0.0	2Suff w/o Lat.	22	1222385	breathlessly	1.0	0.0	False
1223.561	0.0	2Suff RealStemNW	25	1223561	customantly	0.0	1.0	False
1224.895	0.0	0Suff NW	4	1224895	tedal	0.0	1.0	False
1225.937	0.0	1Suff PseudoStemNW	14	1225937	brukal	0.0	1.0	False
1226.854	0.0	2Suff PseudoStemNW	24	1226854	moolurably	0.0	1.0	False
1227.82	0.0	0Suff w/o Lat.	2	1227820	sign	1.0	0.0	False
1228.829	0.0	0Suff NW	4	1228829	abadill	0.0	1.0	False
1229.779	0.0	2Suff w/o Lat.	22	1229779	continually	1.0	0.0	False
1230.938	0.0	2Suff w/o Lat.	22	1230938	truthfully	1.0	0.0	False
1232.255	0.0	1Suff PseudoStemNW	14	1232255	vetcinate	0.0	1.0	False
1233.214	0.0	0Suff w/o Lat.	2	1233214	prophet	1.0	0.0	False
1234.322	0.0	2Suff w/o Lat.	22	1234322	drunkenness	1.0	0.0	False
1235.531	0.0	2Suff RealStemNW	25	1235531	nationantly	0.0	0.0	True
1236.773	0.0	0Suff w/ Lat.	1	1236773	presume	1.0	0.0	False
1237.832	0.0	0Suff NW	4	1237832	adnise	0.0	1.0	False
1238.974	0.0	2Suff Composite	23	1238974	filtration	1.0	1.0	True
1240.833	0.0	0Suff NW	4	1240833	blead	0.0	1.0	False
1241.933	0.0	1Suff w/o Lat.	12	1241933	drunken	1.0	0.0	False
1243.359	0.0	2Suff RealStemNW	25	1243359	sensfulness	0.0	1.0	False
1244.651	0.0	0Suff w/o Lat.	2	1244651	moment	1.0	0.0	False
1245.534	0.0	2Suff w/o Lat.	22	1245534	assertiveness	1.0	0.0	False
1246.76	0.0	2Suff PseudoStemNW	24	1246760	pipsonalize	0.0	1.0	False
1247.835	0.0	2Suff RealStemNW	25	1247835	humanional	0.0	1.0	False
1248.927	0.0	0Suff w/o Lat.	2	1248927	love	1.0	0.0	False
1249.927	0.0	2Suff RealStemNW	25	1249927	opticical	0.0	1.0	False
1251.303	0.0	0Suff w/o Lat.	2	1251303	industry	1.0	0.0	False
1252.345	0.0	2Suff RealStemNW	25	1252345	attentfully	0.0	1.0	False
1253.545	0.0	2Suff PseudoStemNW	24	1253545	cronitionally	0.0	1.0	False
1254.729	0.0	0Suff w/ Lat.	1	1254729	provide	1.0	0.0	False
1255.687	0.0	0Suff w/o Lat.	2	1255687	cause	1.0	0.0	False
1256.613	0.0	2Suff PseudoStemNW	24	1256613	patudation	0.0	1.0	False
1257.655	0.0	2Suff Composite	23	1257655	probation	1.0	0.0	False
1258.855	0.0	2Suff Composite	23	1258855	solidification	1.0	0.0	False
1260.431	0.0	1Suff w/o Lat.	12	1260431	lusty	1.0	0.0	False
1261.464	0.0	1Suff RealStemNW	15	1261464	fruitable	0.0	1.0	False
1263.323	0.0	2Suff w/o Lat.	22	1263323	sensuality	1.0	0.0	False
