onset	duration	trial_type	value	sample	stimulus	is_word	response	correct
24.607	0.0	1Suff PseudoStemNW	14	24607	appigental	0.0	1.0	False
25.532	0.0	2Suff RealStemNW	25	25532	persuasfully	0.0	1.0	False
26.557	0.0	1Suff w/o Lat.	12	26557	cheerful	1.0	0.0	False
27.558	0.0	1Suff PseudoStemNW	14	27558	steadthy	0.0	1.0	False
28.475	0.0	2Suff RealStemNW	25	28475	believator	0.0	1.0	False
29.583	0.0	0Suff w/o Lat.	2	29583	stealth	1.0	0.0	False
30.542	0.0	1Suff w/o Lat.	12	30542	direction	1.0	0.0	False
31.567	0.0	2Suff w/o Lat.	22	31567	differentiate	1.0	0.0	False
32.851	0.0	2Suff w/o Lat.	22	32851	faithfully	1.0	0.0	False
33.785	0.0	0Suff w/o Lat.	2	33785	comment	1.0	0.0	False
35.06	0.0	0Suff w/o Lat.	2	35060	ceremony	1.0	0.0	False
35.96	0.0	1Suff RealStemNW	15	35960	instructate	0.0	1.0	False
37.419	0.0	1Suff w/o Lat.	12	37419	competitive	1.0	0.0	False
38.428	0.0	0Suff NW	4	38428	affall	0.0	1.0	False
39.411	0.0	2Suff PseudoStemNW	24	39411	vimidation	0.0	1.0	False
40.428	0.0	2Suff RealStemNW	25	40428	agreeally	0.0	1.0	False
41.495	0.0	1Suff w/ Lat.	11	41495	subjective	1.0	0.0	False
42.471	0.0	1Suff w/o Lat.	12	42471	soulful	1.0	0.0	False
43.613	0.0	1Suff PseudoStemNW	14	43613	chotintical	0.0	1.0	False
44.605	0.0	1Suff w/o Lat.	12	44605	moisture	1.0	0.0	False
45.572	0.0	0Suff w/o Lat.	2	45572	decor	1.0	0.0	False
46.664	0.0	0Suff w/o Lat.	2	46664	architect	1.0	0.0	False
47.589	0.0	0Suff NW	4	47589	lenction	0.0	1.0	False
48.523	0.0	2Suff PseudoStemNW	24	48523	snoughtlessly	0.0	1.0	False
49.898	0.0	0Suff w/o Lat.	2	49898	compete	1.0	0.0	False
50.923	0.0	2Suff Composite	23	50923	deterministic	1.0	0.0	False
52.199	0.0	0Suff NW	4	52199	prebit	0.0	1.0	False
53.207	0.0	2Suff w/o Lat.	22	53207	softener	1.0	0.0	False
54.274	0.0	0Suff NW	4	54274	imoat	0.0	1.0	False
55.25	0.0	0Suff NW	4	55250	meabon	0.0	1.0	False
56.317	0.0	2Suff PseudoStemNW	24	56317	avoldability	0.0	1.0	False
57.767	0.0	1Suff PseudoStemNW	14	57767	reration	0.0	1.0	False
58.834	0.0	1Suff RealStemNW	15	58834	developward	0.0	1.0	False
59.743	0.0	1Suff PseudoStemNW	14	59743	uteless	0.0	1.0	False
61.035	0.0	1Suff w/o Lat.	12	61035	outward	1.0	0.0	False
62.11	0.0	0Suff w/o Lat.	2	62110	family	1.0	0.0	False
62.994	0.0	0Suff NW	4	62994	corzess	0.0	1.0	False
63.952	0.0	1Suff w/o Lat.	12	63952	familiar	1.0	0.0	False
64.861	0.0	2Suff PseudoStemNW	24	64861	esdybitionism	0.0	1.0	False
65.811	0.0	0Suff NW	4	65811	helily	0.0	1.0	False
67.203	0.0	0Suff w/o Lat.	2	67203	adapt	1.0	0.0	False
68.195	0.0	1Suff w/o Lat.	12	68195	wakeful	1.0	0.0	False
69.529	0.0	0Suff w/o Lat.	2	69529	hero	1.0	0.0	False
70.379	0.0	0Suff NW	4	70379	arx	0.0	1.0	False
71.271	0.0	2Suff w/o Lat.	22	71271	childishness	1.0	0.0	False
72.488	0.0	0Suff NW	4	72488	mevion	0.0	1.0	False
73.497	0.0	2Suff RealStemNW	25	73497	awively	0.0	1.0	False
74.356	0.0	0Suff NW	4	74356	sork	0.0	1.0	False
75.731	0.0	1Suff w/o Lat.	12	75731	relative	1.0	0.0	False
76.665	0.0	1Suff w/o Lat.	12	76665	materialist	1.0	0.0	False
77.798	0.0	0Suff NW	4	77798	rame	0.0	1.0	False
78.824	0.0	0Suff w/o Lat.	2	78824	rhythm	1.0	0.0	False
79.766	0.0	1Suff w/ Lat.	11	79766	mistaken	1.0	0.0	False
80.674	0.0	1Suff w/o Lat.	12	80674	decisive	1.0	0.0	False
81.574	0.0	0Suff w/o Lat.	2	81574	thick	1.0	0.0	False
82.466	0.0	1Suff RealStemNW	15	82466	useive	0.0	1.0	False
83.775	0.0	0Suff NW	4	83775	hesa	0.0	1.0	False
84.667	0.0	2Suff RealStemNW	25	84667	editerize	0.0	1.0	False
85.776	0.0	1Suff w/o Lat.	12	85776	considerate	1.0	0.0	False
86.784	0.0	1Suff w/o Lat.	12	86784	reasonable	1.0	0.0	False
87.793	0.0	2Suff w/o Lat.	22	87793	editorship	1.0	1.0	True
89.027	0.0	1Suff PseudoStemNW	14	89027	etilor	0.0	1.0	False
89.977	0.0	0Suff w/o Lat.	2	89977	glory	1.0	0.0	False
90.936	0.0	0Suff NW	4	90936	pask	0.0	1.0	False
91.944	0.0	1Suff w/o Lat.	12	91944	useless	1.0	0.0	False
92.878	0.0	0Suff w/o Lat.	2	92878	immune	1.0	0.0	False
94.103	0.0	1Suff PseudoStemNW	14	94103	paftial	0.0	1.0	False
95.579	0.0	2Suff w/o Lat.	22	95579	delightfully	1.0	0.0	False
96.712	0.0	2Suff w/o Lat.	22	96712	restlessness	1.0	0.0	False
98.488	0.0	2Suff w/o Lat.	22	98488	magnetically	1.0	0.0	False
99.588	0.0	1Suff w/o Lat.	12	99588	manly	1.0	0.0	False
100.705	0.0	0Suff w/ Lat.	1	100705	progress	1.0	0.0	False
102.347	0.0	0Suff w/o Lat.	2	102347	fast	1.0	0.0	False
103.223	0.0	0Suff NW	4	103223	stumia	0.0	1.0	False
104.281	0.0	0Suff NW	4	104281	hyth	0.0	1.0	False
105.39	0.0	2Suff Composite	23	105390	sterilization	1.0	0.0	False
106.49	0.0	2Suff w/o Lat.	22	106490	executioner	1.0	0.0	False
107.532	0.0	0Suff w/o Lat.	2	107532	child	1.0	0.0	False
108.583	0.0	1Suff w/o Lat.	12	108583	isolation	1.0	0.0	False
109.666	0.0	1Suff RealStemNW	15	109666	magnetal	0.0	1.0	False
110.667	0.0	1Suff w/o Lat.	12	110667	basic	1.0	0.0	False
111.55	0.0	2Suff w/o Lat.	22	111550	fatalist	1.0	0.0	False
112.784	0.0	2Suff w/ Lat.	21	112784	availability	1.0	0.0	False
114.018	0.0	2Suff w/o Lat.	22	114018	guiltiness	1.0	0.0	False
115.368	0.0	2Suff PseudoStemNW	24	115368	mistilenly	0.0	1.0	False
116.469	0.0	2Suff w/o Lat.	22	116469	decisively	1.0	0.0	False
117.402	0.0	1Suff w/o Lat.	12	117402	fatal	1.0	0.0	False
118.469	0.0	1Suff w/o Lat.	12	118469	government	1.0	0.0	False
119.478	0.0	2Suff RealStemNW	25	119478	painively	0.0	1.0	False
120.553	0.0	0Suff NW	4	120553	pavediad	0.0	1.0	False
121.52	0.0	2Suff w/o Lat.	22	121520	relationship	1.0	0.0	False
123.312	0.0	2Suff w/o Lat.	22	123312	frightfully	1.0	1.0	True
124.888	0.0	0Suff w/o Lat.	2	124888	design	1.0	0.0	False
126.071	0.0	0Suff w/o Lat.	2	126071	fate	1.0	0.0	False
127.372	0.0	0Suff w/o Lat.	2	127372	function	1.0	0.0	False
128.414	0.0	2Suff PseudoStemNW	24	128414	perburbation	0.0	1.0	False
129.598	0.0	2Suff RealStemNW	25	129598	commutfully	0.0	1.0	False
130.89	0.0	1Suff PseudoStemNW	14	130890	headthy	0.0	1.0	False
132.04	0.0	2Suff w/o Lat.	22	132040	manliness	1.0	0.0	False
133.282	0.0	2Suff w/ Lat.	21	133282	projectionist	1.0	0.0	False
134.374	0.0	1Suff RealStemNW	15	134374	immunist	0.0	1.0	False
135.816	0.0	2Suff PseudoStemNW	24	135816	restittably	0.0	1.0	False
137.583	0.0	2Suff PseudoStemNW	24	137583	chotintically	0.0	1.0	False
138.784	0.0	0Suff w/o Lat.	2	138784	accident	1.0	0.0	False
139.784	0.0	0Suff NW	4	139784	thash	0.0	1.0	False
140.851	0.0	1Suff w/o Lat.	12	140851	useful	1.0	0.0	False
141.843	0.0	2Suff RealStemNW	25	141843	governancial	0.0	1.0	False
143.377	0.0	2Suff RealStemNW	25	143377	futurional	0.0	1.0	False
145.619	0.0	1Suff PseudoStemNW	14	145619	ramial	0.0	1.0	False
146.619	0.0	1Suff w/o Lat.	12	146619	soften	1.0	0.0	False
147.845	0.0	2Suff RealStemNW	25	147845	vitalilessly	0.0	1.0	False
148.962	0.0	2Suff PseudoStemNW	24	148962	eetwardly	0.0	1.0	False
149.97	0.0	2Suff PseudoStemNW	24	149970	awditional	0.0	1.0	False
151.004	0.0	0Suff NW	4	151004	orifad	0.0	1.0	False
151.904	0.0	2Suff Composite	23	151904	biblical	1.0	0.0	False
152.855	0.0	1Suff PseudoStemNW	14	152855	hythical	0.0	1.0	False
153.822	0.0	2Suff RealStemNW	25	153822	substanceical	0.0	1.0	False
154.855	0.0	2Suff w/o Lat.	22	154855	graciously	1.0	0.0	False
156.089	0.0	2Suff w/ Lat.	21	156089	conceptualize	1.0	0.0	False
162.166	0.0	2Suff w/o Lat.	22	162166	architectural	1.0	0.0	False
163.366	0.0	2Suff w/o Lat.	22	163366	basically	1.0	0.0	False
164.433	0.0	0Suff NW	4	164433	perburve	0.0	1.0	False
165.509	0.0	2Suff w/o Lat.	22	165509	cheerfulness	1.0	0.0	False
166.642	0.0	2Suff w/o Lat.	22	166642	occasionally	1.0	0.0	False
167.651	0.0	1Suff PseudoStemNW	14	167651	degorate	0.0	1.0	False
168.685	0.0	1Suff PseudoStemNW	14	168685	priueurant	0.0	1.0	False
169.977	0.0	2Suff Composite	23	169977	categorical	1.0	0.0	False
170.952	0.0	2Suff w/o Lat.	22	170952	usefully	1.0	0.0	False
171.786	0.0	2Suff w/ Lat.	21	171786	extensively	1.0	0.0	False
172.744	0.0	2Suff w/ Lat.	21	172744	impressionism	1.0	0.0	False
173.853	0.0	1Suff w/o Lat.	12	173853	regrettable	1.0	0.0	False
174.978	0.0	1Suff RealStemNW	15	174978	protectate	0.0	1.0	False
176.287	0.0	1Suff RealStemNW	15	176287	availless	0.0	1.0	False
177.262	0.0	1Suff RealStemNW	15	177262	conceptuic	0.0	1.0	False
178.329	0.0	2Suff w/o Lat.	22	178329	materialistic	1.0	0.0	False
179.296	0.0	0Suff w/o Lat.	2	179296	market	1.0	0.0	False
180.213	0.0	0Suff NW	4	180213	devade	0.0	1.0	False
181.28	0.0	0Suff NW	4	181280	eant	0.0	1.0	False
182.239	0.0	2Suff PseudoStemNW	24	182239	inshemmation	0.0	1.0	False
183.214	0.0	1Suff w/o Lat.	12	183214	harmless	1.0	0.0	False
184.273	0.0	0Suff w/o Lat.	2	184273	real	1.0	0.0	False
185.306	0.0	0Suff NW	4	185306	wroty	0.0	1.0	False
186.19	0.0	2Suff w/o Lat.	22	186190	governmental	1.0	0.0	False
187.665	0.0	2Suff PseudoStemNW	24	187665	onnensively	0.0	1.0	False
189.133	0.0	1Suff PseudoStemNW	14	189133	wrotify	0.0	1.0	False
190.125	0.0	1Suff RealStemNW	15	190125	directar	0.0	1.0	False
191.108	0.0	2Suff w/o Lat.	22	191108	moisturize	1.0	0.0	False
192.075	0.0	0Suff NW	4	192075	hode	0.0	1.0	False
193.059	0.0	2Suff w/o Lat.	22	193059	considerably	1.0	0.0	False
194.001	0.0	0Suff w/o Lat.	2	194001	govern	1.0	0.0	False
194.826	0.0	2Suff w/o Lat.	22	194826	fatally	1.0	0.0	False
195.843	0.0	0Suff NW	4	195843	onnense	0.0	1.0	False
196.827	0.0	2Suff w/o Lat.	22	196827	peacefully	1.0	0.0	False
197.985	0.0	1Suff RealStemNW	15	197985	delightive	0.0	1.0	False
199.411	0.0	0Suff w/o Lat.	2	199411	harm	1.0	0.0	False
200.403	0.0	2Suff PseudoStemNW	24	200403	falumfilly	0.0	1.0	False
201.436	0.0	1Suff RealStemNW	15	201436	idealate	0.0	1.0	False
202.587	0.0	2Suff PseudoStemNW	24	202587	imoatization	0.0	1.0	False
203.695	0.0	1Suff w/o Lat.	12	203695	thoughtful	1.0	0.0	False
204.704	0.0	0Suff NW	4	204704	halk	0.0	1.0	False
205.829	0.0	1Suff RealStemNW	15	205829	successate	0.0	1.0	False
207.13	0.0	2Suff w/o Lat.	22	207130	easily	1.0	0.0	False
208.13	0.0	2Suff PseudoStemNW	24	208130	comlomation	0.0	1.0	False
209.105	0.0	2Suff w/o Lat.	22	209105	ritualistic	1.0	0.0	False
210.122	0.0	2Suff PseudoStemNW	24	210122	worchlessness	0.0	1.0	False
211.464	0.0	0Suff NW	4	211464	bant	0.0	1.0	False
212.698	0.0	0Suff w/o Lat.	2	212698	rest	1.0	0.0	False
213.673	0.0	0Suff w/o Lat.	2	213673	profit	1.0	0.0	False
214.974	0.0	0Suff NW	4	214974	analk	0.0	1.0	False
216.108	0.0	2Suff w/o Lat.	22	216108	directional	1.0	0.0	False
217.158	0.0	0Suff w/ Lat.	1	217158	affirm	1.0	0.0	False
218.133	0.0	2Suff PseudoStemNW	24	218133	lenctionally	0.0	1.0	False
219.509	0.0	1Suff RealStemNW	15	219509	agreeless	0.0	1.0	False
220.917	0.0	1Suff RealStemNW	15	220917	gracance	0.0	1.0	False
221.851	0.0	0Suff w/ Lat.	1	221851	subject	1.0	0.0	False
222.893	0.0	2Suff w/o Lat.	22	222893	leadership	1.0	0.0	False
223.843	0.0	1Suff RealStemNW	15	223843	hopeable	0.0	1.0	False
225.052	0.0	0Suff w/o Lat.	2	225052	logic	1.0	0.0	False
226.027	0.0	2Suff w/o Lat.	22	226027	ceremonially	1.0	0.0	False
227.161	0.0	1Suff w/o Lat.	12	227161	logical	1.0	0.0	False
228.011	0.0	2Suff w/o Lat.	22	228011	believably	1.0	0.0	False
229.17	0.0	1Suff w/o Lat.	12	229170	difference	1.0	0.0	False
230.12	0.0	1Suff PseudoStemNW	14	230120	eetward	0.0	1.0	False
231.304	0.0	2Suff RealStemNW	25	231304	affectorship	0.0	1.0	False
232.863	0.0	1Suff RealStemNW	15	232863	persistify	0.0	1.0	False
234.188	0.0	1Suff w/o Lat.	12	234188	successful	1.0	0.0	False
235.263	0.0	2Suff RealStemNW	25	235263	easery	0.0	1.0	False
236.347	0.0	0Suff w/o Lat.	2	236347	occasion	1.0	0.0	False
237.456	0.0	2Suff RealStemNW	25	237456	executarity	0.0	1.0	False
239.031	0.0	2Suff w/o Lat.	22	239031	glorification	1.0	0.0	False
240.248	0.0	1Suff w/o Lat.	12	240248	global	1.0	0.0	False
241.274	0.0	2Suff RealStemNW	25	241274	cheerability	0.0	1.0	False
242.516	0.0	2Suff PseudoStemNW	24	242516	concolerably	0.0	1.0	False
243.766	0.0	0Suff w/o Lat.	2	243766	edit	1.0	0.0	False
244.733	0.0	1Suff PseudoStemNW	14	244733	fralatize	0.0	1.0	False
245.725	0.0	0Suff NW	4	245725	urmer	0.0	1.0	False
246.909	0.0	2Suff PseudoStemNW	24	246909	snoughtfully	0.0	1.0	False
248.059	0.0	2Suff RealStemNW	25	248059	exhaustfully	0.0	1.0	False
249.559	0.0	2Suff PseudoStemNW	24	249559	tipeliness	0.0	1.0	False
250.543	0.0	2Suff Composite	23	250543	futuristic	1.0	0.0	False
251.71	0.0	1Suff RealStemNW	15	251710	persuasful	0.0	1.0	False
253.211	0.0	1Suff w/o Lat.	12	253211	musical	1.0	0.0	False
254.303	0.0	2Suff PseudoStemNW	24	254303	utefully	0.0	1.0	False
255.586	0.0	0Suff w/o Lat.	2	255586	glee	1.0	0.0	False
257.42	0.0	1Suff PseudoStemNW	14	257420	urmerly	0.0	1.0	False
258.396	0.0	2Suff RealStemNW	25	258396	realional	0.0	1.0	False
259.396	0.0	1Suff w/o Lat.	12	259396	substantial	1.0	0.0	False
260.563	0.0	2Suff RealStemNW	25	260563	isolatmental	0.0	1.0	False
261.58	0.0	1Suff RealStemNW	15	261580	childory	0.0	1.0	False
262.672	0.0	2Suff w/o Lat.	22	262672	periodical	1.0	0.0	False
263.822	0.0	1Suff RealStemNW	15	263822	logicic	0.0	1.0	False
265.114	0.0	2Suff w/o Lat.	22	265114	deadliness	1.0	0.0	False
266.898	0.0	0Suff NW	4	266898	devesug	0.0	1.0	False
267.84	0.0	1Suff PseudoStemNW	14	267840	lenctional	0.0	1.0	False
268.749	0.0	0Suff NW	4	268749	distawks	0.0	1.0	False
269.632	0.0	2Suff w/o Lat.	22	269632	speedily	1.0	0.0	False
270.558	0.0	2Suff PseudoStemNW	24	270558	falality	0.0	0.0	True
271.766	0.0	2Suff PseudoStemNW	24	271766	allidation	0.0	1.0	False
273.734	0.0	1Suff w/o Lat.	12	273734	ethical	1.0	0.0	False
274.776	0.0	2Suff w/o Lat.	22	274776	statistically	1.0	0.0	False
275.959	0.0	2Suff RealStemNW	25	275959	impressliness	0.0	1.0	False
277.235	0.0	1Suff PseudoStemNW	14	277235	cunerogial	0.0	1.0	False
278.468	0.0	0Suff w/o Lat.	2	278468	poet	1.0	0.0	False
279.519	0.0	2Suff RealStemNW	25	279519	conceptuical	0.0	1.0	False
280.786	0.0	1Suff RealStemNW	15	280786	peaceive	0.0	1.0	False
282.028	0.0	1Suff RealStemNW	15	282028	differious	0.0	1.0	False
283.045	0.0	2Suff PseudoStemNW	24	283045	headthily	0.0	1.0	False
284.103	0.0	1Suff PseudoStemNW	14	284103	nolable	0.0	1.0	False
285.12	0.0	0Suff NW	4	285120	ippune	0.0	1.0	False
286.121	0.0	2Suff w/o Lat.	22	286121	poetical	1.0	0.0	False
287.196	0.0	1Suff w/o Lat.	12	287196	occasional	1.0	0.0	False
288.163	0.0	0Suff w/o Lat.	2	288163	pain	1.0	0.0	False
289.205	0.0	2Suff w/o Lat.	22	289205	relativism	1.0	0.0	False
290.105	0.0	2Suff RealStemNW	25	290105	ritualional	0.0	1.0	False
291.247	0.0	2Suff w/ Lat.	21	291247	exhibitionism	1.0	0.0	False
292.356	0.0	0Suff NW	4	292356	prowert	0.0	1.0	False
293.44	0.0	0Suff w/o Lat.	2	293440	globe	1.0	0.0	False
294.382	0.0	1Suff w/o Lat.	12	294382	definite	1.0	0.0	False
318.256	0.0	2Suff PseudoStemNW	24	318256	pafferential	0.0	1.0	False
319.148	0.0	2Suff PseudoStemNW	24	319148	dehonitive	0.0	1.0	False
320.048	0.0	1Suff PseudoStemNW	14	320048	aisless	0.0	1.0	False
320.915	0.0	0Suff w/o Lat.	2	320915	direct	1.0	0.0	False
321.823	0.0	1Suff RealStemNW	15	321823	impressate	0.0	1.0	False
322.857	0.0	1Suff w/o Lat.	12	322857	peaceful	1.0	0.0	False
323.799	0.0	2Suff RealStemNW	25	323799	polioner	0.0	1.0	False
324.741	0.0	1Suff RealStemNW	15	324741	architectian	0.0	1.0	False
325.85	0.0	2Suff PseudoStemNW	24	325850	distawksively	0.0	1.0	False
327.142	0.0	2Suff PseudoStemNW	24	327142	mosimization	0.0	1.0	False
328.317	0.0	2Suff PseudoStemNW	24	328317	deabonably	0.0	1.0	False
329.426	0.0	1Suff PseudoStemNW	14	329426	sushective	0.0	1.0	False
330.968	0.0	2Suff RealStemNW	25	330968	fatical	0.0	1.0	False
332.16	0.0	1Suff RealStemNW	15	332160	wakeive	0.0	1.0	False
333.11	0.0	2Suff w/ Lat.	21	333110	persistently	1.0	n/a	False
335.494	0.0	2Suff RealStemNW	25	335494	characterional	0.0	1.0	False
336.62	0.0	0Suff w/o Lat.	2	336620	faith	1.0	0.0	False
337.603	0.0	0Suff w/o Lat.	2	337603	ideal	1.0	0.0	False
338.454	0.0	1Suff w/o Lat.	12	338454	periodic	1.0	0.0	False
339.654	0.0	1Suff RealStemNW	15	339654	thoughtive	0.0	1.0	False
340.738	0.0	1Suff w/o Lat.	12	340738	fasten	1.0	0.0	False
341.596	0.0	2Suff Composite	23	341596	perturbation	1.0	0.0	False
342.555	0.0	2Suff PseudoStemNW	24	342555	pasnetically	0.0	1.0	False
343.613	0.0	2Suff w/o Lat.	22	343613	trivialize	1.0	1.0	True
344.58	0.0	1Suff RealStemNW	15	344580	exhaustful	0.0	1.0	False
346.506	0.0	2Suff PseudoStemNW	24	346506	hodelessly	0.0	1.0	False
347.54	0.0	0Suff NW	4	347540	desalk	0.0	1.0	False
348.423	0.0	0Suff NW	4	348423	attossin	0.0	1.0	False
349.215	0.0	2Suff w/o Lat.	22	349215	notably	1.0	0.0	False
350.182	0.0	1Suff RealStemNW	15	350182	nervate	0.0	1.0	False
351.241	0.0	0Suff NW	4	351241	paft	0.0	1.0	False
352.283	0.0	1Suff w/o Lat.	12	352283	partial	1.0	0.0	False
353.375	0.0	0Suff w/o Lat.	2	353375	moist	1.0	0.0	False
354.333	0.0	1Suff PseudoStemNW	14	354333	halkless	0.0	1.0	False
355.3	0.0	1Suff w/o Lat.	12	355300	triumphant	1.0	0.0	False
356.501	0.0	0Suff NW	4	356501	cossete	0.0	1.0	False
357.568	0.0	2Suff RealStemNW	25	357568	isolatliness	0.0	1.0	False
358.81	0.0	1Suff w/o Lat.	12	358810	poetic	1.0	0.0	False
359.777	0.0	2Suff w/o Lat.	22	359777	leaderless	1.0	0.0	False
361.236	0.0	0Suff NW	4	361236	concuch	0.0	1.0	False
362.303	0.0	0Suff w/o Lat.	2	362303	aim	1.0	0.0	False
363.328	0.0	2Suff w/ Lat.	21	363328	affirmatively	1.0	0.0	False
364.595	0.0	2Suff Composite	23	364595	commutation	1.0	0.0	False
365.829	0.0	2Suff w/o Lat.	22	365829	relativity	1.0	0.0	False
366.829	0.0	0Suff w/o Lat.	2	366829	part	1.0	0.0	False
367.721	0.0	1Suff PseudoStemNW	14	367721	ewsibal	0.0	1.0	False
368.713	0.0	1Suff w/o Lat.	12	368713	painful	1.0	0.0	False
369.596	0.0	0Suff NW	4	369596	reut	0.0	1.0	False
370.63	0.0	2Suff PseudoStemNW	24	370630	pinonical	0.0	1.0	False
371.705	0.0	0Suff NW	4	371705	exufant	0.0	1.0	False
372.656	0.0	1Suff w/o Lat.	12	372656	immunize	1.0	0.0	False
373.589	0.0	1Suff PseudoStemNW	14	373589	prodfessive	0.0	1.0	False
375.273	0.0	0Suff w/o Lat.	2	375273	isolate	1.0	0.0	False
376.324	0.0	2Suff w/o Lat.	22	376324	considerately	1.0	0.0	False
377.324	0.0	2Suff PseudoStemNW	24	377324	steadthily	0.0	1.0	False
378.641	0.0	2Suff w/o Lat.	22	378641	educational	1.0	0.0	False
379.891	0.0	1Suff RealStemNW	15	379891	basly	0.0	1.0	False
380.967	0.0	0Suff w/o Lat.	2	380967	assassin	1.0	0.0	False
382.334	0.0	0Suff w/o Lat.	2	382334	soul	1.0	0.0	False
383.251	0.0	2Suff PseudoStemNW	24	383251	squasification	0.0	1.0	False
384.251	0.0	2Suff w/o Lat.	22	384251	logically	1.0	0.0	False
385.151	0.0	0Suff NW	4	385151	tuty	0.0	1.0	False
386.185	0.0	2Suff w/o Lat.	22	386185	gloriously	1.0	0.0	False
387.16	0.0	2Suff RealStemNW	25	387160	immunability	0.0	1.0	False
389.027	0.0	0Suff w/ Lat.	1	389027	instruct	1.0	0.0	False
390.27	0.0	2Suff Composite	23	390270	pasteurization	1.0	0.0	False
391.653	0.0	2Suff RealStemNW	25	391653	notifilessly	0.0	1.0	False
393.721	0.0	1Suff w/o Lat.	12	393721	designate	1.0	0.0	False
394.871	0.0	2Suff RealStemNW	25	394871	quotfully	0.0	1.0	False
396.055	0.0	2Suff w/o Lat.	22	396055	gleefully	1.0	0.0	False
397.188	0.0	1Suff PseudoStemNW	14	397188	glibal	0.0	1.0	False
398.214	0.0	1Suff PseudoStemNW	14	398214	imoatist	0.0	1.0	False
399.281	0.0	2Suff Composite	23	399281	stratification	1.0	0.0	False
400.614	0.0	1Suff PseudoStemNW	14	400614	snoughtless	0.0	0.0	True
402.415	0.0	0Suff w/ Lat.	1	402415	persist	1.0	0.0	False
403.349	0.0	0Suff NW	4	403349	subplence	0.0	1.0	False
404.516	0.0	2Suff w/o Lat.	22	404516	originality	1.0	0.0	False
405.991	0.0	0Suff NW	4	405991	prodfess	0.0	1.0	False
407.225	0.0	1Suff PseudoStemNW	14	407225	concolerable	0.0	1.0	False
408.717	0.0	2Suff PseudoStemNW	24	408717	chierfully	0.0	0.0	True
409.909	0.0	2Suff PseudoStemNW	24	409909	desalkation	0.0	1.0	False
411.401	0.0	0Suff w/o Lat.	2	411401	margin	1.0	0.0	False
412.418	0.0	0Suff NW	4	412418	awd	0.0	1.0	False
414.327	0.0	1Suff PseudoStemNW	14	414327	rhylphic	0.0	n/a	False
416.728	0.0	2Suff RealStemNW	25	416728	editionate	0.0	1.0	False
417.928	0.0	0Suff w/ Lat.	1	417928	avail	1.0	1.0	True
418.903	0.0	1Suff RealStemNW	15	418903	restable	0.0	0.0	True
420.12	0.0	1Suff w/o Lat.	12	420120	speedy	1.0	0.0	False
421.187	0.0	1Suff w/o Lat.	12	421187	guilty	1.0	0.0	False
422.154	0.0	0Suff NW	4	422154	snight	0.0	1.0	False
423.08	0.0	1Suff w/o Lat.	12	423080	magnetic	1.0	0.0	False
424.022	0.0	0Suff w/o Lat.	2	424022	speed	1.0	0.0	False
424.813	0.0	1Suff PseudoStemNW	14	424813	thiendly	0.0	1.0	False
425.947	0.0	2Suff PseudoStemNW	24	425947	thashfulness	0.0	1.0	False
427.198	0.0	2Suff w/o Lat.	22	427198	painfully	1.0	0.0	False
428.181	0.0	2Suff RealStemNW	25	428181	decisishness	0.0	1.0	False
429.181	0.0	2Suff PseudoStemNW	24	429181	uspasionally	0.0	1.0	False
431.574	0.0	0Suff w/o Lat.	2	431574	develop	1.0	0.0	False
432.499	0.0	2Suff w/o Lat.	22	432499	relational	1.0	1.0	True
433.691	0.0	2Suff w/o Lat.	22	433691	harmlessly	1.0	0.0	False
434.792	0.0	2Suff w/o Lat.	22	434792	partiality	1.0	0.0	False
436.025	0.0	0Suff w/o Lat.	2	436025	decide	1.0	0.0	False
436.959	0.0	2Suff RealStemNW	25	436959	moistantly	0.0	0.0	True
438.684	0.0	2Suff RealStemNW	25	438684	idealional	0.0	1.0	False
439.885	0.0	2Suff w/o Lat.	22	439885	ethically	1.0	0.0	False
440.818	0.0	1Suff w/o Lat.	12	440818	provocative	1.0	0.0	False
441.769	0.0	2Suff RealStemNW	25	441769	decorural	0.0	1.0	False
442.702	0.0	0Suff w/o Lat.	2	442702	reason	1.0	0.0	False
443.686	0.0	0Suff w/o Lat.	2	443686	ethic	1.0	0.0	False
444.711	0.0	0Suff NW	4	444711	figic	0.0	1.0	False
445.853	0.0	2Suff PseudoStemNW	24	445853	instrovtional	0.0	1.0	False
446.904	0.0	2Suff PseudoStemNW	24	446904	thackener	0.0	1.0	False
448.212	0.0	1Suff RealStemNW	15	448212	marketless	0.0	1.0	False
449.313	0.0	2Suff w/ Lat.	21	449313	predictably	1.0	0.0	False
450.796	0.0	2Suff PseudoStemNW	24	450796	utelessness	0.0	1.0	False
451.93	0.0	2Suff w/o Lat.	22	451930	familiarity	1.0	0.0	False
453.039	0.0	2Suff w/o Lat.	22	453039	thickener	1.0	0.0	False
454.114	0.0	2Suff w/o Lat.	22	454114	commentator	1.0	0.0	False
455.298	0.0	0Suff w/o Lat.	2	455298	ease	1.0	0.0	False
478.18	0.0	2Suff w/o Lat.	22	478180	definitely	1.0	0.0	False
479.364	0.0	0Suff w/o Lat.	2	479364	triumph	1.0	0.0	False
480.381	0.0	2Suff PseudoStemNW	24	480381	adstification	0.0	1.0	False
481.364	0.0	1Suff RealStemNW	15	481364	extensful	0.0	1.0	False
482.406	0.0	2Suff w/o Lat.	22	482406	uselessness	1.0	0.0	False
483.448	0.0	1Suff w/o Lat.	12	483448	originate	1.0	0.0	False
484.407	0.0	2Suff PseudoStemNW	24	484407	priueurantly	0.0	1.0	False
485.499	0.0	2Suff RealStemNW	25	485499	harmiously	0.0	1.0	False
486.658	0.0	0Suff NW	4	486658	restit	0.0	1.0	False
487.616	0.0	0Suff w/o Lat.	2	487616	execute	1.0	0.0	False
488.983	0.0	1Suff PseudoStemNW	14	488983	dehonite	0.0	1.0	False
490.1	0.0	0Suff NW	4	490100	stitile	0.0	1.0	False
491.017	0.0	2Suff RealStemNW	25	491017	projectliness	0.0	1.0	False
492.209	0.0	0Suff NW	4	492209	faulm	0.0	1.0	False
493.493	0.0	2Suff RealStemNW	25	493493	peaceively	0.0	1.0	False
494.66	0.0	0Suff w/o Lat.	2	494660	wake	1.0	0.0	False
495.635	0.0	2Suff w/o Lat.	22	495635	hopelessly	1.0	0.0	False
496.836	0.0	2Suff RealStemNW	25	496836	fatalize	0.0	0.0	True
497.978	0.0	0Suff NW	4	497978	headth	0.0	1.0	False
498.936	0.0	1Suff RealStemNW	15	498936	designion	0.0	1.0	False
499.97	0.0	1Suff w/o Lat.	12	499970	mythical	1.0	0.0	False
501.037	0.0	1Suff w/o Lat.	12	501037	commentate	1.0	0.0	False
502.504	0.0	0Suff w/o Lat.	2	502504	fury	1.0	0.0	False
503.346	0.0	2Suff RealStemNW	25	503346	subjectfully	0.0	0.0	True
504.596	0.0	1Suff PseudoStemNW	14	504596	fleepy	0.0	1.0	False
505.672	0.0	2Suff w/o Lat.	22	505672	adaptability	1.0	0.0	False
506.972	0.0	1Suff w/o Lat.	12	506972	healthy	1.0	0.0	False
507.947	0.0	1Suff w/o Lat.	12	507947	idealist	1.0	0.0	False
509.339	0.0	1Suff w/o Lat.	12	509339	forgetful	1.0	0.0	False
510.24	0.0	1Suff w/o Lat.	12	510240	thoughtless	1.0	0.0	False
511.24	0.0	2Suff w/o Lat.	22	511240	nervousness	1.0	0.0	False
512.232	0.0	0Suff NW	4	512232	glibe	0.0	1.0	False
513.232	0.0	2Suff RealStemNW	25	513232	guiltioner	0.0	1.0	False
514.191	0.0	2Suff RealStemNW	25	514191	orderionist	0.0	1.0	False
515.608	0.0	2Suff Composite	23	515608	vexation	1.0	1.0	True
516.8	0.0	2Suff Composite	23	516800	corporation	1.0	0.0	False
517.892	0.0	2Suff w/o Lat.	22	517892	realistic	1.0	0.0	False
518.817	0.0	0Suff w/o Lat.	2	518817	guilt	1.0	0.0	False
519.668	0.0	0Suff NW	4	519668	fars	0.0	0.0	True
520.66	0.0	1Suff RealStemNW	15	520660	furance	0.0	1.0	False
521.743	0.0	0Suff NW	4	521743	mowth	0.0	1.0	False
522.802	0.0	1Suff w/ Lat.	11	522802	impression	1.0	0.0	False
523.819	0.0	2Suff w/o Lat.	22	523819	assassination	1.0	0.0	False
524.853	0.0	2Suff PseudoStemNW	24	524853	devesugmental	0.0	1.0	False
525.936	0.0	2Suff Composite	23	525936	militarization	1.0	0.0	False
526.987	0.0	2Suff Composite	23	526987	revitalization	1.0	0.0	False
528.045	0.0	2Suff w/o Lat.	22	528045	regrettably	1.0	0.0	False
529.162	0.0	2Suff Composite	23	529162	satirical	1.0	0.0	False
530.179	0.0	1Suff PseudoStemNW	14	530179	stumial	0.0	1.0	False
531.23	0.0	0Suff NW	4	531230	manfin	0.0	1.0	False
532.297	0.0	0Suff w/o Lat.	2	532297	forget	1.0	1.0	True
533.105	0.0	0Suff w/ Lat.	1	533105	impress	1.0	0.0	False
534.08	0.0	0Suff w/o Lat.	2	534080	drama	1.0	0.0	False
534.989	0.0	1Suff RealStemNW	15	534989	competitful	0.0	1.0	False
536.431	0.0	0Suff NW	4	536431	eserete	0.0	1.0	False
537.665	0.0	0Suff NW	4	537665	preguct	0.0	1.0	False
538.649	0.0	2Suff w/o Lat.	22	538649	furiously	1.0	0.0	False
539.691	0.0	0Suff NW	4	539691	provame	0.0	1.0	False
540.774	0.0	2Suff PseudoStemNW	24	540774	hythically	0.0	1.0	False
542.166	0.0	2Suff w/o Lat.	22	542166	decisiveness	1.0	0.0	False
543.175	0.0	1Suff PseudoStemNW	14	543175	chierful	0.0	1.0	False
544.4	0.0	0Suff NW	4	544400	eet	0.0	1.0	False
545.367	0.0	1Suff w/o Lat.	12	545367	heroic	1.0	0.0	False
546.284	0.0	0Suff w/o Lat.	2	546284	differ	1.0	0.0	False
547.335	0.0	1Suff PseudoStemNW	14	547335	fleedy	0.0	1.0	False
548.468	0.0	2Suff Composite	23	548468	inflammation	1.0	0.0	False
549.527	0.0	2Suff w/o Lat.	22	549527	stealthily	1.0	0.0	False
550.552	0.0	0Suff w/o Lat.	2	550552	trivia	1.0	1.0	True
551.586	0.0	0Suff w/o Lat.	2	551586	agree	1.0	0.0	False
552.536	0.0	0Suff w/ Lat.	1	552536	project	1.0	0.0	False
553.395	0.0	0Suff NW	4	553395	nerbs	0.0	1.0	False
554.47	0.0	2Suff PseudoStemNW	24	554470	potarity	0.0	1.0	False
555.429	0.0	2Suff PseudoStemNW	24	555429	essoilially	0.0	1.0	False
556.346	0.0	2Suff w/o Lat.	22	556346	differential	1.0	0.0	False
557.338	0.0	2Suff Composite	23	557338	autistic	1.0	0.0	False
558.296	0.0	2Suff RealStemNW	25	558296	materialional	0.0	1.0	False
559.572	0.0	2Suff w/ Lat.	21	559572	affectionate	1.0	0.0	False
560.564	0.0	0Suff NW	4	560564	rhylph	0.0	1.0	False
561.664	0.0	0Suff NW	4	561664	concoler	0.0	1.0	False
562.598	0.0	2Suff w/o Lat.	22	562598	mobilization	1.0	0.0	False
563.556	0.0	1Suff w/o Lat.	12	563556	different	1.0	0.0	False
564.49	0.0	0Suff w/o Lat.	2	564490	note	1.0	0.0	False
565.857	0.0	1Suff w/o Lat.	12	565857	sterilize	1.0	0.0	False
566.74	0.0	0Suff NW	4	566740	avold	0.0	1.0	False
567.849	0.0	2Suff w/o Lat.	22	567849	sleepily	1.0	0.0	False
568.858	0.0	0Suff NW	4	568858	nole	0.0	1.0	False
569.875	0.0	1Suff w/o Lat.	12	569875	marketable	1.0	0.0	False
570.883	0.0	2Suff Composite	23	570883	amplification	1.0	0.0	False
571.834	0.0	0Suff NW	4	571834	chird	0.0	1.0	False
572.859	0.0	2Suff w/o Lat.	22	572859	worthlessness	1.0	0.0	False
574.126	0.0	0Suff NW	4	574126	rerard	0.0	1.0	False
575.585	0.0	0Suff w/o Lat.	2	575585	season	1.0	0.0	False
576.452	0.0	1Suff PseudoStemNW	14	576452	distawksive	0.0	1.0	False
577.527	0.0	1Suff PseudoStemNW	14	577527	thashful	0.0	1.0	False
578.602	0.0	0Suff w/o Lat.	2	578602	define	1.0	0.0	False
579.453	0.0	1Suff PseudoStemNW	14	579453	orifadate	0.0	1.0	False
580.545	0.0	1Suff w/o Lat.	12	580545	editor	1.0	0.0	False
581.578	0.0	1Suff w/ Lat.	11	581578	instruction	1.0	0.0	False
582.504	0.0	1Suff RealStemNW	15	582504	educatate	0.0	1.0	False
583.987	0.0	1Suff w/o Lat.	12	583987	addition	1.0	0.0	False
585.104	0.0	2Suff w/o Lat.	22	585104	thoughtlessly	1.0	1.0	True
586.688	0.0	2Suff w/o Lat.	22	586688	awfully	1.0	0.0	False
587.705	0.0	2Suff w/o Lat.	22	587705	essentially	1.0	0.0	False
588.864	0.0	2Suff Composite	23	588864	mechanistic	1.0	1.0	True
590.106	0.0	0Suff w/o Lat.	2	590106	friend	1.0	0.0	False
591.048	0.0	1Suff PseudoStemNW	14	591048	deabonable	0.0	1.0	False
592.048	0.0	2Suff RealStemNW	25	592048	predictator	0.0	0.0	True
593.065	0.0	0Suff NW	4	593065	wate	0.0	1.0	False
594.091	0.0	2Suff w/o Lat.	22	594091	reasonably	1.0	0.0	False
595.049	0.0	1Suff w/o Lat.	12	595049	director	1.0	0.0	False
596.025	0.0	2Suff RealStemNW	25	596025	marketfulness	0.0	0.0	True
597.225	0.0	2Suff Composite	23	597225	vitalization	1.0	0.0	False
598.55	0.0	2Suff PseudoStemNW	24	598550	nerbousness	0.0	1.0	False
599.717	0.0	2Suff PseudoStemNW	24	599717	otification	0.0	1.0	False
600.976	0.0	1Suff w/o Lat.	12	600976	trivial	1.0	0.0	False
602.11	0.0	2Suff w/o Lat.	22	602110	seasonally	1.0	0.0	False
603.093	0.0	1Suff w/o Lat.	12	603093	accidental	1.0	0.0	False
604.127	0.0	1Suff RealStemNW	15	604127	assassinion	0.0	0.0	True
605.102	0.0	1Suff w/o Lat.	12	605102	stealthy	1.0	0.0	False
622.549	0.0	1Suff RealStemNW	15	622549	poetal	0.0	1.0	False
623.466	0.0	2Suff w/o Lat.	22	623466	globally	1.0	0.0	False
624.408	0.0	1Suff w/o Lat.	12	624408	decorate	1.0	0.0	False
625.334	0.0	1Suff w/o Lat.	12	625334	relation	1.0	0.0	False
626.3	0.0	2Suff PseudoStemNW	24	626300	stumiality	0.0	1.0	False
627.309	0.0	0Suff NW	4	627309	isotent	0.0	1.0	False
628.184	0.0	0Suff w/ Lat.	1	628184	extend	1.0	0.0	False
629.06	0.0	2Suff w/o Lat.	22	629060	mythically	1.0	0.0	False
629.985	0.0	2Suff w/o Lat.	22	629985	hopelessness	1.0	0.0	False
631.01	0.0	0Suff NW	4	631010	uspasion	0.0	1.0	False
631.961	0.0	1Suff RealStemNW	15	631961	ritualify	0.0	1.0	False
632.978	0.0	2Suff w/ Lat.	21	632978	mistakenly	1.0	0.0	False
634.036	0.0	0Suff NW	4	634036	etil	0.0	1.0	False
635.303	0.0	2Suff RealStemNW	25	635303	satirally	0.0	0.0	True
636.312	0.0	2Suff w/o Lat.	22	636312	triviality	1.0	0.0	False
637.837	0.0	0Suff NW	4	637837	chier	0.0	1.0	False
638.771	0.0	1Suff w/o Lat.	12	638771	childish	1.0	0.0	False
639.83	0.0	2Suff w/o Lat.	22	639830	rhythmically	1.0	0.0	False
640.863	0.0	1Suff PseudoStemNW	14	640863	girernment	0.0	1.0	False
641.905	0.0	0Suff NW	4	641905	musual	0.0	1.0	False
643.197	0.0	2Suff RealStemNW	25	643197	restiousness	0.0	1.0	False
644.398	0.0	1Suff w/o Lat.	12	644398	guardian	1.0	0.0	False
645.44	0.0	2Suff Composite	23	645440	dramatization	1.0	0.0	False
646.407	0.0	1Suff w/o Lat.	12	646407	confession	1.0	0.0	False
647.482	0.0	2Suff PseudoStemNW	24	647482	gloofully	0.0	1.0	False
648.574	0.0	2Suff RealStemNW	25	648574	hopeively	0.0	1.0	False
649.499	0.0	0Suff NW	4	649499	thiend	0.0	1.0	False
650.383	0.0	0Suff NW	4	650383	eshaums	0.0	1.0	False
651.3	0.0	2Suff RealStemNW	25	651300	graceively	0.0	1.0	False
652.942	0.0	2Suff Composite	23	652942	organization	1.0	0.0	False
653.926	0.0	2Suff RealStemNW	25	653926	revitalilessly	0.0	1.0	False
655.56	0.0	1Suff RealStemNW	15	655560	financeic	0.0	1.0	False
656.768	0.0	0Suff NW	4	656768	priueur	0.0	1.0	False
657.785	0.0	0Suff NW	4	657785	rumic	0.0	1.0	False
658.919	0.0	2Suff w/o Lat.	22	658919	wakefulness	1.0	0.0	False
660.269	0.0	1Suff PseudoStemNW	14	660269	devadive	0.0	0.0	True
661.161	0.0	0Suff w/o Lat.	2	661161	dead	1.0	0.0	False
662.078	0.0	0Suff w/o Lat.	2	662078	sleep	1.0	0.0	False
662.953	0.0	0Suff NW	4	662953	grame	0.0	1.0	False
663.929	0.0	2Suff w/o Lat.	22	663929	polarize	1.0	0.0	False
665.196	0.0	2Suff PseudoStemNW	24	665196	vefation	0.0	1.0	False
666.496	0.0	2Suff w/o Lat.	22	666496	painlessly	1.0	0.0	False
667.772	0.0	2Suff PseudoStemNW	24	667772	stitilization	0.0	1.0	False
669.08	0.0	2Suff PseudoStemNW	24	669080	peadership	0.0	1.0	False
670.289	0.0	2Suff w/o Lat.	22	670289	guardianship	1.0	0.0	False
671.398	0.0	2Suff PseudoStemNW	24	671398	reratively	0.0	1.0	False
672.415	0.0	0Suff NW	4	672415	deabon	0.0	1.0	False
673.473	0.0	2Suff RealStemNW	25	673473	glorliness	0.0	1.0	False
674.974	0.0	2Suff PseudoStemNW	24	674974	figically	0.0	1.0	False
675.874	0.0	1Suff PseudoStemNW	14	675874	affaidative	0.0	1.0	False
676.824	0.0	1Suff w/ Lat.	11	676824	affection	1.0	0.0	False
677.825	0.0	2Suff w/o Lat.	22	677825	originator	1.0	0.0	False
678.792	0.0	2Suff RealStemNW	25	678792	educatality	0.0	1.0	False
680.275	0.0	0Suff w/o Lat.	2	680275	add	1.0	0.0	False
681.434	0.0	2Suff PseudoStemNW	24	681434	chirdishness	0.0	1.0	False
682.526	0.0	0Suff NW	4	682526	mistile	0.0	1.0	False
683.518	0.0	2Suff w/o Lat.	22	683518	nervously	1.0	0.0	False
684.485	0.0	1Suff w/o Lat.	12	684485	ritualist	1.0	0.0	False
685.494	0.0	0Suff NW	4	685494	gloo	0.0	1.0	False
686.486	0.0	1Suff w/o Lat.	12	686486	mobilize	1.0	0.0	False
687.494	0.0	2Suff PseudoStemNW	24	687494	cidlical	0.0	1.0	False
688.386	0.0	0Suff w/o Lat.	2	688386	lead	1.0	0.0	False
689.312	0.0	0Suff NW	4	689312	itcress	0.0	1.0	False
690.187	0.0	2Suff RealStemNW	25	690187	considerishly	0.0	1.0	False
692.321	0.0	1Suff PseudoStemNW	14	692321	mowthure	0.0	1.0	False
693.204	0.0	1Suff RealStemNW	15	693204	confessate	0.0	1.0	False
694.497	0.0	0Suff w/o Lat.	2	694497	relate	1.0	0.0	False
695.48	0.0	1Suff w/o Lat.	12	695480	easy	1.0	0.0	False
696.472	0.0	0Suff w/o Lat.	2	696472	health	1.0	0.0	False
697.322	0.0	0Suff NW	4	697322	appigent	0.0	1.0	False
698.373	0.0	1Suff w/o Lat.	12	698373	original	1.0	0.0	False
699.223	0.0	1Suff PseudoStemNW	14	699223	goulty	0.0	1.0	False
700.382	0.0	1Suff w/o Lat.	12	700382	adaptable	1.0	0.0	False
701.365	0.0	1Suff PseudoStemNW	14	701365	thacken	0.0	1.0	False
702.816	0.0	2Suff RealStemNW	25	702816	soulively	0.0	1.0	False
703.983	0.0	2Suff RealStemNW	25	703983	guardifiance	0.0	1.0	False
705.291	0.0	0Suff w/o Lat.	2	705291	valid	1.0	0.0	False
706.275	0.0	0Suff w/o Lat.	2	706275	origin	1.0	0.0	False
707.117	0.0	0Suff NW	4	707117	affaid	0.0	1.0	False
708.167	0.0	0Suff w/o Lat.	2	708167	intense	1.0	0.0	False
709.359	0.0	2Suff w/o Lat.	22	709359	provocatively	1.0	0.0	False
710.56	0.0	1Suff w/o Lat.	12	710560	hopeful	1.0	0.0	False
711.418	0.0	1Suff PseudoStemNW	14	711418	mosimize	0.0	1.0	False
712.71	0.0	1Suff PseudoStemNW	14	712710	preguctable	0.0	1.0	False
713.836	0.0	1Suff w/o Lat.	12	713836	graceful	1.0	0.0	False
714.869	0.0	1Suff w/o Lat.	12	714869	timely	1.0	0.0	False
715.936	0.0	2Suff w/o Lat.	22	715936	childishly	1.0	0.0	False
716.92	0.0	1Suff RealStemNW	15	716920	gleeive	0.0	1.0	False
718.104	0.0	2Suff w/o Lat.	22	718104	hopefully	1.0	0.0	False
719.029	0.0	2Suff RealStemNW	25	719029	persistalism	0.0	1.0	False
720.171	0.0	2Suff RealStemNW	25	720171	friendionist	0.0	1.0	False
721.43	0.0	2Suff RealStemNW	25	721430	periodally	0.0	1.0	False
723.08	0.0	2Suff w/o Lat.	22	723080	isolationist	1.0	1.0	True
724.564	0.0	2Suff RealStemNW	25	724564	assassinfully	0.0	1.0	False
725.814	0.0	2Suff Composite	23	725814	quotation	1.0	0.0	False
726.798	0.0	2Suff w/o Lat.	22	726798	directorship	1.0	0.0	False
727.74	0.0	2Suff w/o Lat.	22	727740	marketability	1.0	0.0	False
729.174	0.0	0Suff NW	4	729174	ewsib	0.0	1.0	False
730.141	0.0	1Suff w/o Lat.	12	730141	idealize	1.0	0.0	False
731.108	0.0	0Suff NW	4	731108	miccess	0.0	1.0	False
732.108	0.0	0Suff NW	4	732108	pead	0.0	1.0	False
733.092	0.0	1Suff PseudoStemNW	14	733092	betiecable	0.0	1.0	False
734.242	0.0	2Suff RealStemNW	25	734242	accidentical	0.0	1.0	False
736.001	0.0	1Suff PseudoStemNW	14	736001	uspasional	0.0	1.0	False
737.093	0.0	1Suff w/o Lat.	12	737093	furious	1.0	0.0	False
738.102	0.0	2Suff RealStemNW	25	738102	forgetiveness	0.0	1.0	False
739.652	0.0	1Suff PseudoStemNW	14	739652	arful	0.0	1.0	False
740.802	0.0	1Suff w/o Lat.	12	740802	financial	1.0	0.0	False
741.836	0.0	2Suff PseudoStemNW	24	741836	ewsibally	0.0	1.0	False
742.92	0.0	0Suff NW	4	742920	vimid	0.0	1.0	False
743.803	0.0	2Suff w/o Lat.	22	743803	partially	1.0	0.0	False
744.829	0.0	0Suff NW	4	744829	fleed	0.0	0.0	True
745.812	0.0	2Suff PseudoStemNW	24	745812	pafferentiate	0.0	1.0	False
746.954	0.0	2Suff PseudoStemNW	24	746954	watefulness	0.0	0.0	True
748.063	0.0	0Suff NW	4	748063	coul	0.0	1.0	False
749.038	0.0	2Suff w/o Lat.	22	749038	triumphantly	1.0	0.0	False
750.422	0.0	2Suff RealStemNW	25	750422	ailistic	0.0	1.0	False
751.456	0.0	1Suff w/ Lat.	11	751456	exhibition	1.0	0.0	False
752.606	0.0	0Suff w/o Lat.	2	752606	time	1.0	0.0	False
775.73	0.0	2Suff PseudoStemNW	24	775730	banically	0.0	1.0	False
776.647	0.0	1Suff w/o Lat.	12	776647	ceremonial	1.0	0.0	False
777.58	0.0	0Suff NW	4	777580	chotintic	0.0	1.0	False
778.564	0.0	0Suff w/o Lat.	2	778564	music	1.0	0.0	False
779.781	0.0	2Suff RealStemNW	25	779781	deadionist	0.0	1.0	False
780.715	0.0	2Suff w/o Lat.	22	780715	agreeably	1.0	0.0	False
781.632	0.0	2Suff PseudoStemNW	24	781632	paftiality	0.0	1.0	False
782.557	0.0	2Suff PseudoStemNW	24	782557	orifadator	0.0	1.0	False
783.516	0.0	2Suff w/o Lat.	22	783516	intensively	1.0	0.0	False
784.441	0.0	1Suff RealStemNW	15	784441	heroal	0.0	1.0	False
785.308	0.0	1Suff w/o Lat.	12	785308	thankful	1.0	0.0	False
786.191	0.0	0Suff w/o Lat.	2	786191	soft	1.0	0.0	False
787.15	0.0	1Suff RealStemNW	15	787150	considerion	0.0	1.0	False
788.434	0.0	2Suff w/o Lat.	22	788434	polarity	1.0	0.0	False
789.609	0.0	1Suff PseudoStemNW	14	789609	essoilial	0.0	1.0	False
790.551	0.0	1Suff RealStemNW	15	790551	forgetive	0.0	1.0	False
791.668	0.0	1Suff RealStemNW	15	791668	provocatful	0.0	1.0	False
792.927	0.0	2Suff w/o Lat.	22	792927	orderliness	1.0	0.0	False
794.211	0.0	0Suff NW	4	794211	detisms	0.0	0.0	True
795.094	0.0	2Suff w/o Lat.	22	795094	racially	1.0	0.0	False
796.069	0.0	1Suff w/o Lat.	12	796069	aimless	1.0	0.0	False
797.161	0.0	2Suff PseudoStemNW	24	797161	urhanization	0.0	1.0	False
798.27	0.0	1Suff w/o Lat.	12	798270	marginal	1.0	0.0	False
799.212	0.0	1Suff RealStemNW	15	799212	differify	0.0	1.0	False
800.337	0.0	0Suff w/o Lat.	2	800337	exhaust	1.0	0.0	False
801.304	0.0	2Suff w/o Lat.	22	801304	differently	1.0	1.0	True
802.721	0.0	2Suff PseudoStemNW	24	802721	deterfuristic	0.0	1.0	False
803.839	0.0	0Suff NW	4	803839	dehone	0.0	1.0	False
804.78	0.0	1Suff RealStemNW	15	804780	realify	0.0	0.0	True
805.747	0.0	2Suff RealStemNW	25	805747	relateness	0.0	1.0	False
807.398	0.0	1Suff w/o Lat.	12	807398	leader	1.0	0.0	False
808.273	0.0	0Suff w/ Lat.	1	808273	affect	1.0	0.0	False
809.157	0.0	2Suff Composite	23	809157	canonical	1.0	0.0	False
810.315	0.0	0Suff NW	4	810315	snought	0.0	1.0	False
811.282	0.0	1Suff w/o Lat.	12	811282	painless	1.0	0.0	False
812.333	0.0	0Suff w/o Lat.	2	812333	educate	1.0	0.0	False
813.233	0.0	0Suff NW	4	813233	pipsist	0.0	1.0	False
814.15	0.0	1Suff w/o Lat.	12	814150	intensive	1.0	0.0	False
815.1	0.0	2Suff RealStemNW	25	815100	manionist	0.0	1.0	False
816.217	0.0	2Suff w/o Lat.	22	816217	definitive	1.0	0.0	False
817.159	0.0	1Suff w/o Lat.	12	817159	frightful	1.0	1.0	True
818.676	0.0	1Suff w/ Lat.	11	818676	conceptual	1.0	0.0	False
819.618	0.0	2Suff PseudoStemNW	24	819618	orifadally	0.0	1.0	False
820.619	0.0	0Suff w/o Lat.	2	820619	myth	1.0	0.0	False
821.594	0.0	2Suff w/o Lat.	22	821594	financially	1.0	0.0	False
822.644	0.0	0Suff w/o Lat.	2	822644	base	1.0	0.0	False
823.595	0.0	0Suff w/o Lat.	2	823595	period	1.0	0.0	False
824.453	0.0	2Suff PseudoStemNW	24	824453	miccessfully	0.0	1.0	False
825.587	0.0	0Suff w/o Lat.	2	825587	cheer	1.0	0.0	False
826.537	0.0	1Suff PseudoStemNW	14	826537	wrotious	0.0	1.0	False
827.529	0.0	1Suff w/o Lat.	12	827529	persuasive	1.0	0.0	False
828.513	0.0	0Suff NW	4	828513	girern	0.0	0.0	True
829.455	0.0	2Suff w/o Lat.	22	829455	functionally	1.0	0.0	False
830.43	0.0	2Suff w/o Lat.	22	830430	marginally	1.0	0.0	False
831.389	0.0	1Suff w/o Lat.	12	831389	validate	1.0	0.0	False
832.406	0.0	1Suff PseudoStemNW	14	832406	paskful	0.0	1.0	False
833.298	0.0	2Suff w/o Lat.	22	833298	transitional	1.0	0.0	False
834.49	0.0	0Suff w/o Lat.	2	834490	order	1.0	0.0	False
835.49	0.0	2Suff RealStemNW	25	835490	financeical	0.0	1.0	False
836.607	0.0	1Suff PseudoStemNW	14	836607	farsen	0.0	1.0	False
837.816	0.0	0Suff NW	4	837816	falget	0.0	1.0	False
838.724	0.0	1Suff w/ Lat.	11	838724	persistent	1.0	0.0	False
839.916	0.0	2Suff w/ Lat.	21	839916	subjectively	1.0	0.0	False
841.325	0.0	2Suff Composite	23	841325	affectation	1.0	0.0	False
842.4	0.0	2Suff w/o Lat.	22	842400	idealistic	1.0	0.0	False
843.492	0.0	1Suff PseudoStemNW	14	843492	hodeful	0.0	1.0	False
844.359	0.0	2Suff RealStemNW	25	844359	glorifilessly	0.0	1.0	False
845.335	0.0	1Suff w/o Lat.	12	845335	racial	1.0	0.0	False
846.268	0.0	0Suff NW	4	846268	peece	0.0	1.0	False
847.519	0.0	1Suff PseudoStemNW	14	847519	subplencial	0.0	1.0	False
848.677	0.0	0Suff w/o Lat.	2	848677	mobile	1.0	0.0	False
849.586	0.0	0Suff w/o Lat.	2	849586	nerve	1.0	0.0	False
850.495	0.0	1Suff w/o Lat.	12	850495	gracious	1.0	0.0	False
851.512	0.0	1Suff RealStemNW	15	851512	periodal	0.0	1.0	False
853.354	0.0	1Suff w/o Lat.	12	853354	orderly	1.0	0.0	False
854.387	0.0	2Suff PseudoStemNW	24	854387	arfulness	0.0	1.0	False
856.213	0.0	0Suff NW	4	856213	eltene	0.0	1.0	False
857.063	0.0	1Suff w/o Lat.	12	857063	faithful	1.0	0.0	False
858.08	0.0	2Suff w/o Lat.	22	858080	thoughtfully	1.0	0.0	False
859.081	0.0	2Suff Composite	23	859081	cannibalistic	1.0	0.0	False
860.264	0.0	2Suff w/o Lat.	22	860264	fatalism	1.0	0.0	False
861.498	0.0	2Suff w/ Lat.	21	861498	subjectivity	1.0	0.0	False
862.582	0.0	2Suff PseudoStemNW	24	862582	cunerogially	0.0	1.0	False
863.924	0.0	1Suff PseudoStemNW	14	863924	tipely	0.0	1.0	False
864.907	0.0	1Suff RealStemNW	15	864907	intensful	0.0	0.0	True
865.908	0.0	1Suff RealStemNW	15	865908	deadic	0.0	1.0	False
866.866	0.0	2Suff PseudoStemNW	24	866866	chirdishly	0.0	1.0	False
867.842	0.0	2Suff RealStemNW	25	867842	marginical	0.0	1.0	False
869.284	0.0	2Suff PseudoStemNW	24	869284	analkability	0.0	1.0	False
870.209	0.0	2Suff PseudoStemNW	24	870209	ictressionism	0.0	1.0	False
871.259	0.0	0Suff NW	4	871259	ais	0.0	1.0	False
872.56	0.0	2Suff PseudoStemNW	24	872560	artlitackural	0.0	1.0	False
873.543	0.0	2Suff w/o Lat.	22	873543	cheerfully	1.0	0.0	False
874.519	0.0	1Suff PseudoStemNW	14	874519	prowertion	0.0	1.0	False
875.477	0.0	2Suff PseudoStemNW	24	875477	denboderation	0.0	1.0	False
876.436	0.0	2Suff w/o Lat.	22	876436	healthily	1.0	0.0	False
877.753	0.0	1Suff w/o Lat.	12	877753	exhaustive	1.0	0.0	False
878.77	0.0	0Suff NW	4	878770	cunerogy	0.0	1.0	False
879.72	0.0	0Suff NW	4	879720	betiece	0.0	1.0	False
880.712	0.0	0Suff w/o Lat.	2	880712	sterile	1.0	0.0	False
881.779	0.0	2Suff RealStemNW	25	881779	poetally	0.0	1.0	False
882.729	0.0	0Suff NW	4	882729	chansot	0.0	1.0	False
883.655	0.0	2Suff w/o Lat.	22	883655	soulfully	1.0	0.0	False
885.314	0.0	0Suff w/o Lat.	2	885314	success	1.0	0.0	False
886.206	0.0	0Suff w/o Lat.	2	886206	fright	1.0	0.0	False
887.548	0.0	2Suff PseudoStemNW	24	887548	nerbously	0.0	1.0	False
888.748	0.0	0Suff NW	4	888748	atrie	0.0	1.0	False
889.665	0.0	1Suff w/o Lat.	12	889665	functional	1.0	0.0	False
890.657	0.0	0Suff w/o Lat.	2	890657	grace	1.0	0.0	False
891.941	0.0	0Suff NW	4	891941	sushect	0.0	1.0	False
892.966	0.0	0Suff w/ Lat.	1	892966	concept	1.0	0.0	False
894.0	0.0	1Suff RealStemNW	15	894000	manen	0.0	1.0	False
895.083	0.0	1Suff PseudoStemNW	14	895083	coppentate	0.0	1.0	False
896.1	0.0	2Suff w/o Lat.	22	896100	successfully	1.0	0.0	False
897.084	0.0	0Suff w/o Lat.	2	897084	substance	1.0	0.0	False
898.193	0.0	2Suff RealStemNW	25	898193	decisfully	0.0	1.0	False
899.143	0.0	1Suff PseudoStemNW	14	899143	vimidate	0.0	1.0	False
900.285	0.0	2Suff RealStemNW	25	900285	confessality	0.0	1.0	False
901.66	0.0	2Suff w/o Lat.	22	901660	outwardly	1.0	0.0	False
919.024	0.0	0Suff NW	4	919024	fale	0.0	1.0	False
919.966	0.0	1Suff PseudoStemNW	14	919966	awdition	0.0	1.0	False
920.883	0.0	2Suff w/o Lat.	22	920883	awfulness	1.0	0.0	False
922.225	0.0	1Suff PseudoStemNW	14	922225	worchless	0.0	1.0	False
923.142	0.0	1Suff w/ Lat.	11	923142	extensive	1.0	0.0	False
924.126	0.0	0Suff w/o Lat.	2	924126	believe	1.0	0.0	False
925.201	0.0	1Suff PseudoStemNW	14	925201	chansotion	0.0	1.0	False
926.126	0.0	1Suff w/o Lat.	12	926126	notify	1.0	0.0	False
927.151	0.0	2Suff PseudoStemNW	24	927151	segnonistic	0.0	1.0	False
928.16	0.0	0Suff NW	4	928160	instrove	0.0	1.0	False
929.302	0.0	0Suff NW	4	929302	finiles	0.0	1.0	False
930.277	0.0	2Suff PseudoStemNW	24	930277	pipplification	0.0	1.0	False
931.236	0.0	2Suff w/o Lat.	22	931236	profitably	1.0	0.0	False
932.545	0.0	1Suff RealStemNW	15	932545	familior	0.0	1.0	False
933.403	0.0	1Suff w/o Lat.	12	933403	statistical	1.0	0.0	False
934.362	0.0	1Suff PseudoStemNW	14	934362	pavediadist	0.0	1.0	False
935.504	0.0	1Suff w/o Lat.	12	935504	dramatize	1.0	0.0	False
936.504	0.0	2Suff PseudoStemNW	24	936504	eltensively	0.0	1.0	False
937.588	0.0	2Suff RealStemNW	25	937588	provocatfully	0.0	1.0	False
938.963	0.0	2Suff PseudoStemNW	24	938963	paftially	0.0	1.0	False
939.922	0.0	1Suff w/o Lat.	12	939922	distinctive	1.0	0.0	False
940.856	0.0	1Suff w/o Lat.	12	940856	gleeful	1.0	1.0	True
942.206	0.0	2Suff w/o Lat.	22	942206	timeliness	1.0	0.0	False
943.206	0.0	2Suff w/o Lat.	22	943206	additional	1.0	0.0	False
944.257	0.0	2Suff PseudoStemNW	24	944257	prebitably	0.0	1.0	False
945.274	0.0	1Suff PseudoStemNW	14	945274	meabonal	0.0	1.0	False
946.341	0.0	0Suff NW	4	946341	coppent	0.0	1.0	False
947.266	0.0	2Suff w/o Lat.	22	947266	persuasively	1.0	0.0	False
948.283	0.0	2Suff RealStemNW	25	948283	notural	0.0	1.0	False
949.508	0.0	2Suff PseudoStemNW	24	949508	hodelessness	0.0	1.0	False
950.8	0.0	0Suff w/o Lat.	2	950800	finance	1.0	1.0	True
952.142	0.0	1Suff w/o Lat.	12	952142	deadly	1.0	0.0	False
953.326	0.0	2Suff PseudoStemNW	24	953326	gramiously	0.0	1.0	False
954.235	0.0	1Suff w/o Lat.	12	954235	agreeable	1.0	0.0	False
955.26	0.0	2Suff w/o Lat.	22	955260	gracefully	1.0	0.0	False
956.16	0.0	0Suff w/o Lat.	2	956160	race	1.0	0.0	False
957.019	0.0	2Suff RealStemNW	25	957019	subjectously	0.0	1.0	False
958.344	0.0	2Suff RealStemNW	25	958344	dramationist	0.0	1.0	False
959.895	0.0	2Suff w/o Lat.	22	959895	confessional	1.0	0.0	False
961.145	0.0	1Suff w/o Lat.	12	961145	protection	1.0	0.0	False
962.179	0.0	2Suff RealStemNW	25	962179	fasticly	0.0	1.0	False
963.221	0.0	1Suff w/o Lat.	12	963221	architecture	1.0	0.0	False
964.138	0.0	2Suff PseudoStemNW	24	964138	concuchualize	0.0	1.0	False
965.38	0.0	2Suff RealStemNW	25	965380	leadantate	0.0	1.0	False
966.389	0.0	2Suff w/o Lat.	22	966389	originally	1.0	0.0	False
967.356	0.0	2Suff Composite	23	967356	simplification	1.0	0.0	False
968.381	0.0	0Suff w/o Lat.	2	968381	provoke	1.0	0.0	False
969.364	0.0	2Suff PseudoStemNW	24	969364	detismsfully	0.0	1.0	False
970.415	0.0	2Suff PseudoStemNW	24	970415	stumialize	0.0	1.0	False
971.79	0.0	2Suff RealStemNW	25	971790	raceical	0.0	1.0	False
972.966	0.0	1Suff w/o Lat.	12	972966	polar	1.0	0.0	False
974.183	0.0	1Suff RealStemNW	15	974183	polit	0.0	1.0	False
975.108	0.0	0Suff w/ Lat.	1	975108	predict	1.0	0.0	False
976.067	0.0	1Suff RealStemNW	15	976067	sterilist	0.0	1.0	False
977.259	0.0	2Suff RealStemNW	25	977259	fatantly	0.0	0.0	True
978.676	0.0	1Suff w/o Lat.	12	978676	glorious	1.0	0.0	False
979.584	0.0	2Suff Composite	23	979584	utilization	1.0	1.0	True
980.651	0.0	0Suff NW	4	980651	esdybit	0.0	1.0	False
981.643	0.0	0Suff w/o Lat.	2	981643	awe	1.0	0.0	False
982.494	0.0	1Suff w/ Lat.	11	982494	available	1.0	0.0	False
983.977	0.0	2Suff w/o Lat.	22	983977	protectionist	1.0	0.0	False
984.919	0.0	2Suff PseudoStemNW	24	984919	rerational	0.0	1.0	False
986.028	0.0	1Suff w/o Lat.	12	986028	seasonal	1.0	0.0	False
987.07	0.0	2Suff RealStemNW	25	987070	categorally	0.0	0.0	True
988.07	0.0	0Suff w/o Lat.	2	988070	consider	1.0	0.0	False
989.071	0.0	1Suff w/o Lat.	12	989071	friendly	1.0	0.0	False
990.313	0.0	2Suff w/ Lat.	21	990313	impressionist	1.0	0.0	False
991.388	0.0	2Suff PseudoStemNW	24	991388	affallation	0.0	1.0	False
992.413	0.0	2Suff w/o Lat.	22	992413	notification	1.0	0.0	False
993.48	0.0	1Suff PseudoStemNW	14	993480	prebitable	0.0	1.0	False
994.647	0.0	2Suff PseudoStemNW	24	994647	diructorship	0.0	1.0	False
995.839	0.0	0Suff NW	4	995839	sest	0.0	1.0	False
996.765	0.0	1Suff w/o Lat.	12	996765	glorify	1.0	0.0	False
997.673	0.0	2Suff w/o Lat.	22	997673	aimlessly	1.0	0.0	False
998.707	0.0	1Suff PseudoStemNW	14	998707	orifadal	0.0	1.0	False
999.882	0.0	0Suff NW	4	999882	mosime	0.0	1.0	False
1001.108	0.0	2Suff w/o Lat.	22	1001108	idealization	1.0	0.0	False
1002.125	0.0	1Suff w/o Lat.	12	1002125	dramatic	1.0	0.0	False
1003.092	0.0	1Suff w/o Lat.	12	1003092	essential	1.0	0.0	False
1004.684	0.0	0Suff w/o Lat.	2	1004684	use	1.0	0.0	False
1005.551	0.0	1Suff PseudoStemNW	14	1005551	rumical	0.0	1.0	False
1006.701	0.0	2Suff RealStemNW	25	1006701	aimiously	0.0	1.0	False
1007.676	0.0	0Suff NW	4	1007676	frala	0.0	1.0	False
1008.602	0.0	1Suff w/o Lat.	12	1008602	profitable	1.0	0.0	False
1009.552	0.0	1Suff w/o Lat.	12	1009552	transition	1.0	0.0	False
1010.619	0.0	2Suff RealStemNW	25	1010619	directality	0.0	1.0	False
1011.786	0.0	1Suff RealStemNW	15	1011786	exhibitate	0.0	1.0	False
1012.978	0.0	2Suff w/o Lat.	22	1012978	decorator	1.0	0.0	False
1014.403	0.0	2Suff PseudoStemNW	24	1014403	orifadality	0.0	1.0	False
1015.395	0.0	2Suff RealStemNW	25	1015395	differalism	0.0	1.0	False
1016.321	0.0	0Suff NW	4	1016321	manhet	0.0	1.0	False
1017.329	0.0	1Suff w/o Lat.	12	1017329	sleepy	1.0	0.0	False
1018.296	0.0	1Suff w/o Lat.	12	1018296	notable	1.0	0.0	False
1019.313	0.0	2Suff Composite	23	1019313	confederation	1.0	0.0	False
1020.689	0.0	1Suff RealStemNW	15	1020689	soulive	0.0	1.0	False
1021.731	0.0	1Suff w/ Lat.	11	1021731	progressive	1.0	0.0	False
1022.698	0.0	0Suff NW	4	1022698	gulbs	0.0	1.0	False
1023.623	0.0	0Suff w/o Lat.	2	1023623	essence	1.0	0.0	False
1024.573	0.0	1Suff w/ Lat.	11	1024573	predictable	1.0	1.0	True
1025.598	0.0	2Suff PseudoStemNW	24	1025598	stoteldionist	0.0	1.0	False
1026.74	0.0	1Suff w/o Lat.	12	1026740	rhythmic	1.0	0.0	False
1027.674	0.0	1Suff w/ Lat.	11	1027674	affirmative	1.0	0.0	False
1028.649	0.0	2Suff w/o Lat.	22	1028649	designation	1.0	0.0	False
1029.925	0.0	1Suff w/o Lat.	12	1029925	realist	1.0	0.0	False
1030.758	0.0	0Suff w/o Lat.	2	1030758	statistic	1.0	0.0	False
1031.625	0.0	2Suff PseudoStemNW	24	1031625	degorative	0.0	0.0	True
1032.509	0.0	2Suff Composite	23	1032509	characteristic	1.0	0.0	False
1033.626	0.0	2Suff w/ Lat.	21	1033626	instructional	1.0	0.0	False
1034.585	0.0	1Suff w/o Lat.	12	1034585	delightful	1.0	0.0	False
1035.602	0.0	0Suff NW	4	1035602	essoils	0.0	1.0	False
1036.56	0.0	0Suff w/ Lat.	1	1036560	mistake	1.0	0.0	False
1037.51	0.0	2Suff PseudoStemNW	24	1037510	fleedily	0.0	1.0	False
1038.511	0.0	1Suff PseudoStemNW	14	1038511	fralatic	0.0	1.0	False
1039.436	0.0	1Suff w/o Lat.	12	1039436	nervous	1.0	0.0	False
1040.303	0.0	2Suff RealStemNW	25	1040303	relatifiable	0.0	1.0	False
1041.445	0.0	1Suff PseudoStemNW	14	1041445	sorken	0.0	0.0	True
1042.329	0.0	2Suff PseudoStemNW	24	1042329	prodfessively	0.0	1.0	False
1043.396	0.0	0Suff NW	4	1043396	degor	0.0	1.0	False
1044.388	0.0	2Suff w/o Lat.	22	1044388	validation	1.0	0.0	False
1069.804	0.0	1Suff RealStemNW	15	1069804	mistaker	0.0	1.0	False
1070.862	0.0	2Suff w/o Lat.	22	1070862	competitively	1.0	0.0	False
1071.829	0.0	0Suff NW	4	1071829	moel	0.0	1.0	False
1072.888	0.0	2Suff w/o Lat.	22	1072888	fatality	1.0	0.0	False
1073.913	0.0	2Suff w/o Lat.	22	1073913	exhaustively	1.0	0.0	False
1074.889	0.0	2Suff w/o Lat.	22	1074889	dramatically	1.0	0.0	False
1075.872	0.0	2Suff RealStemNW	25	1075872	globical	0.0	1.0	False
1076.898	0.0	2Suff PseudoStemNW	24	1076898	tutiously	0.0	1.0	False
1077.84	0.0	0Suff NW	4	1077840	paffer	0.0	1.0	False
1078.907	0.0	2Suff w/o Lat.	22	1078907	immunization	1.0	0.0	False
1079.948	0.0	2Suff PseudoStemNW	24	1079948	cossetitively	0.0	1.0	False
1080.915	0.0	1Suff w/ Lat.	11	1080915	projection	1.0	0.0	False
1081.907	0.0	0Suff w/o Lat.	2	1081907	magnet	1.0	0.0	False
1082.908	0.0	1Suff w/o Lat.	12	1082908	restless	1.0	1.0	True
1083.991	0.0	1Suff w/o Lat.	12	1083991	development	1.0	0.0	False
1084.95	0.0	2Suff w/o Lat.	22	1084950	isolationism	1.0	1.0	True
1086.084	0.0	1Suff w/o Lat.	12	1086084	assassinate	1.0	0.0	False
1087.051	0.0	0Suff NW	4	1087051	pote	0.0	1.0	False
1088.176	0.0	0Suff NW	4	1088176	artlitack	0.0	1.0	False
1089.235	0.0	0Suff w/o Lat.	2	1089235	ritual	1.0	0.0	False
1090.227	0.0	2Suff w/o Lat.	22	1090227	relatively	1.0	0.0	False
1091.269	0.0	2Suff RealStemNW	25	1091269	dramatilessly	0.0	1.0	False
1092.477	0.0	0Suff NW	4	1092477	diruce	0.0	1.0	False
1093.553	0.0	2Suff RealStemNW	25	1093553	seasonical	0.0	0.0	True
1094.661	0.0	1Suff PseudoStemNW	14	1094661	snightful	0.0	1.0	False
1095.703	0.0	0Suff w/o Lat.	2	1095703	thought	1.0	0.0	False
1096.82	0.0	2Suff PseudoStemNW	24	1096820	rhylphically	0.0	1.0	False
1097.987	0.0	0Suff w/o Lat.	2	1097987	hope	1.0	0.0	False
1098.988	0.0	1Suff RealStemNW	15	1098988	painable	0.0	1.0	False
1100.388	0.0	0Suff w/o Lat.	2	1100388	pole	1.0	1.0	True
1101.672	0.0	1Suff RealStemNW	15	1101672	relatful	0.0	1.0	False
1102.897	0.0	0Suff NW	4	1102897	han	0.0	1.0	False
1104.248	0.0	0Suff w/o Lat.	2	1104248	thank	1.0	0.0	False
1105.09	0.0	2Suff RealStemNW	25	1105090	sleepery	0.0	1.0	False
1106.157	0.0	0Suff w/o Lat.	2	1106157	worth	1.0	0.0	False
1107.074	0.0	2Suff PseudoStemNW	24	1107074	pasklessly	0.0	1.0	False
1108.007	0.0	2Suff w/o Lat.	22	1108007	friendliness	1.0	0.0	False
1108.966	0.0	2Suff w/o Lat.	22	1108966	editorial	1.0	0.0	False
1110.208	0.0	1Suff PseudoStemNW	14	1110208	gulbsian	0.0	1.0	False
1111.275	0.0	2Suff PseudoStemNW	24	1111275	pafleurization	0.0	1.0	False
1112.358	0.0	1Suff PseudoStemNW	14	1112358	grameful	0.0	1.0	False
1113.317	0.0	0Suff NW	4	1113317	goult	0.0	1.0	False
1114.618	0.0	0Suff NW	4	1114618	worch	0.0	1.0	False
1115.601	0.0	0Suff w/o Lat.	2	1115601	man	1.0	0.0	False
1116.568	0.0	2Suff w/o Lat.	22	1116568	developmental	1.0	0.0	False
1117.977	0.0	0Suff w/o Lat.	2	1117977	protect	1.0	0.0	False
1118.944	0.0	1Suff PseudoStemNW	14	1118944	falal	0.0	1.0	False
1120.178	0.0	1Suff RealStemNW	15	1120178	eany	0.0	1.0	False
1121.236	0.0	0Suff w/o Lat.	2	1121236	delight	1.0	0.0	False
1122.37	0.0	2Suff w/o Lat.	22	1122370	thankfulness	1.0	0.0	False
1123.412	0.0	0Suff w/o Lat.	2	1123412	regret	1.0	0.0	False
1124.396	0.0	0Suff w/o Lat.	2	1124396	peace	1.0	0.0	False
1125.329	0.0	1Suff w/o Lat.	12	1125329	considerable	1.0	0.0	False
1126.213	0.0	1Suff PseudoStemNW	14	1126213	diruction	0.0	1.0	False
1127.321	0.0	1Suff PseudoStemNW	14	1127321	eseretion	0.0	1.0	False
1128.655	0.0	2Suff w/o Lat.	22	1128655	accidentally	1.0	0.0	False
1129.664	0.0	2Suff w/o Lat.	22	1129664	fastener	1.0	0.0	False
1130.706	0.0	2Suff PseudoStemNW	24	1130706	sorkener	0.0	1.0	False
1131.648	0.0	1Suff PseudoStemNW	14	1131648	nolify	0.0	1.0	False
1132.69	0.0	0Suff NW	4	1132690	stoteld	0.0	1.0	False
1133.832	0.0	2Suff w/ Lat.	21	1133832	progressively	1.0	0.0	False
1134.874	0.0	2Suff RealStemNW	25	1134874	transitality	0.0	1.0	False
1136.041	0.0	2Suff PseudoStemNW	24	1136041	coppentator	0.0	1.0	False
1137.174	0.0	0Suff w/o Lat.	2	1137174	distinct	1.0	0.0	False
1138.133	0.0	0Suff NW	4	1138133	fleep	0.0	1.0	False
1139.242	0.0	2Suff w/o Lat.	22	1139242	familiarize	1.0	0.0	False
1140.234	0.0	0Suff w/o Lat.	2	1140234	persuade	1.0	0.0	False
1141.217	0.0	2Suff RealStemNW	25	1141217	affirmatfully	0.0	1.0	False
1142.576	0.0	1Suff RealStemNW	15	1142576	isolatate	0.0	0.0	True
1143.593	0.0	2Suff w/ Lat.	21	1143593	conceptually	1.0	0.0	False
1144.585	0.0	2Suff Composite	23	1144585	allegation	1.0	0.0	False
1145.727	0.0	1Suff w/o Lat.	12	1145727	hopeless	1.0	0.0	False
1146.636	0.0	0Suff w/o Lat.	2	1146636	out	1.0	0.0	False
1147.561	0.0	1Suff PseudoStemNW	14	1147561	analkable	0.0	1.0	False
1148.561	0.0	2Suff RealStemNW	25	1148561	musicical	0.0	1.0	False
1150.704	0.0	0Suff w/o Lat.	2	1150704	guard	1.0	0.0	False
1151.629	0.0	2Suff w/o Lat.	22	1151629	musically	1.0	0.0	False
1152.521	0.0	2Suff RealStemNW	25	1152521	familiately	0.0	1.0	False
1153.88	0.0	1Suff w/o Lat.	12	1153880	believable	1.0	0.0	False
1154.797	0.0	2Suff RealStemNW	25	1154797	definerize	0.0	1.0	False
1155.972	0.0	1Suff PseudoStemNW	14	1155972	restittable	0.0	1.0	False
1157.189	0.0	2Suff w/o Lat.	22	1157189	substantially	1.0	0.0	False
1158.556	0.0	2Suff w/o Lat.	22	1158556	distinctively	1.0	0.0	False
1160.015	0.0	0Suff NW	4	1160015	thack	0.0	1.0	False
1161.123	0.0	0Suff w/o Lat.	2	1161123	material	1.0	0.0	False
1162.04	0.0	1Suff w/o Lat.	12	1162040	education	1.0	0.0	False
1163.016	0.0	1Suff PseudoStemNW	14	1163016	affallion	0.0	1.0	False
1164.108	0.0	2Suff PseudoStemNW	24	1164108	carbisalistic	0.0	1.0	False
1165.108	0.0	2Suff PseudoStemNW	24	1165108	rerativity	0.0	1.0	False
1166.083	0.0	2Suff RealStemNW	25	1166083	familierage	0.0	1.0	False
1167.242	0.0	2Suff PseudoStemNW	24	1167242	snightfully	0.0	1.0	False
1168.551	0.0	1Suff PseudoStemNW	14	1168551	falumful	0.0	1.0	False
1169.351	0.0	0Suff w/ Lat.	1	1169351	exhibit	1.0	0.0	False
1170.46	0.0	0Suff NW	4	1170460	wead	0.0	1.0	False
1171.993	0.0	0Suff NW	4	1171993	tipe	0.0	1.0	False
1174.102	0.0	2Suff PseudoStemNW	24	1174102	posicarization	0.0	1.0	False
1175.186	0.0	0Suff w/o Lat.	2	1175186	confess	1.0	0.0	False
1176.22	0.0	2Suff w/o Lat.	22	1176220	decorative	1.0	0.0	False
1177.153	0.0	1Suff w/o Lat.	12	1177153	awful	1.0	0.0	False
1178.079	0.0	1Suff RealStemNW	15	1178079	leador	0.0	1.0	False
1179.279	0.0	1Suff w/o Lat.	12	1179279	execution	1.0	0.0	False
1180.296	0.0	1Suff RealStemNW	15	1180296	marginic	0.0	1.0	False
1181.305	0.0	0Suff w/o Lat.	2	1181305	transit	1.0	0.0	False
1182.347	0.0	2Suff w/o Lat.	22	1182347	forgetfulness	1.0	0.0	False
1183.88	0.0	1Suff w/o Lat.	12	1183880	thicken	1.0	0.0	False
1184.998	0.0	1Suff w/o Lat.	12	1184998	worthless	1.0	0.0	False
1185.864	0.0	0Suff NW	4	1185864	steadth	0.0	1.0	False
1186.898	0.0	0Suff NW	4	1186898	ute	0.0	1.0	False
1187.865	0.0	0Suff NW	4	1187865	pasnet	0.0	1.0	False
