onset	duration	trial_type	value	sample	stimulus	is_word	response	correct
30.037	0.0	0Suff w/o Lat.	2	30037	wake	1.0	0.0	False
31.313	0.0	0Suff NW	4	31313	hesa	0.0	1.0	False
33.263	0.0	2Suff Composite	23	33263	stratification	1.0	0.0	False
35.022	0.0	2Suff PseudoStemNW	24	35022	deterfuristic	0.0	n/a	False
37.423	0.0	2Suff PseudoStemNW	24	37423	restittably	0.0	0.0	True
37.965	0.0	1Suff PseudoStemNW	14	37965	eseretion	0.0	1.0	False
39.357	0.0	2Suff PseudoStemNW	24	39357	worchlessness	0.0	0.0	True
41.333	0.0	1Suff w/o Lat.	12	41333	immunize	1.0	0.0	False
42.533	0.0	2Suff PseudoStemNW	24	42533	cunerogially	0.0	1.0	False
44.884	0.0	2Suff RealStemNW	25	44884	conceptuical	0.0	0.0	True
46.126	0.0	0Suff NW	4	46126	paffer	0.0	1.0	False
47.459	0.0	2Suff w/ Lat.	21	47459	instructional	1.0	0.0	False
48.768	0.0	1Suff w/o Lat.	12	48768	moisture	1.0	0.0	False
50.019	0.0	1Suff PseudoStemNW	14	50019	vimidate	0.0	1.0	False
51.744	0.0	2Suff PseudoStemNW	24	51744	eetwardly	0.0	1.0	False
52.994	0.0	2Suff PseudoStemNW	24	52994	stumialize	0.0	1.0	False
54.678	0.0	2Suff w/o Lat.	22	54678	sleepily	1.0	0.0	False
55.812	0.0	0Suff w/o Lat.	2	55812	faith	1.0	0.0	False
56.887	0.0	1Suff RealStemNW	15	56887	forgetive	0.0	1.0	False
58.613	0.0	2Suff Composite	23	58613	amplification	1.0	0.0	False
60.405	0.0	0Suff NW	4	60405	snought	0.0	0.0	True
62.581	0.0	2Suff Composite	23	62581	vexation	1.0	0.0	False
63.864	0.0	1Suff w/o Lat.	12	63864	hopeless	1.0	0.0	False
64.931	0.0	1Suff w/o Lat.	12	64931	wakeful	1.0	0.0	False
65.965	0.0	2Suff RealStemNW	25	65965	awively	0.0	1.0	False
67.257	0.0	1Suff w/o Lat.	12	67257	dramatic	1.0	0.0	False
68.474	0.0	0Suff NW	4	68474	mistile	0.0	1.0	False
69.816	0.0	2Suff PseudoStemNW	24	69816	cidlical	0.0	1.0	False
71.108	0.0	0Suff NW	4	71108	chansot	0.0	1.0	False
72.459	0.0	2Suff PseudoStemNW	24	72459	posicarization	0.0	1.0	False
73.751	0.0	1Suff w/o Lat.	12	73751	considerable	1.0	0.0	False
75.035	0.0	2Suff RealStemNW	25	75035	polioner	0.0	1.0	False
76.252	0.0	2Suff w/o Lat.	22	76252	editorship	1.0	1.0	True
78.261	0.0	1Suff PseudoStemNW	14	78261	grameful	0.0	1.0	False
79.944	0.0	0Suff w/o Lat.	2	79944	occasion	1.0	0.0	False
81.17	0.0	1Suff RealStemNW	15	81170	logicic	0.0	n/a	False
83.571	0.0	0Suff NW	4	83571	figic	0.0	1.0	False
84.913	0.0	2Suff RealStemNW	25	84913	ritualional	0.0	1.0	False
86.572	0.0	0Suff w/ Lat.	1	86572	mistake	1.0	0.0	False
87.655	0.0	2Suff w/o Lat.	22	87655	wakefulness	1.0	0.0	False
88.889	0.0	2Suff w/o Lat.	22	88889	functionally	1.0	0.0	False
90.256	0.0	0Suff w/o Lat.	2	90256	reason	1.0	0.0	False
91.465	0.0	0Suff NW	4	91465	fleep	0.0	1.0	False
92.648	0.0	2Suff Composite	23	92648	simplification	1.0	0.0	False
93.907	0.0	2Suff w/ Lat.	21	93907	exhibitionism	1.0	0.0	False
95.691	0.0	1Suff w/o Lat.	12	95691	partial	1.0	0.0	False
96.791	0.0	0Suff NW	4	96791	snight	0.0	1.0	False
98.158	0.0	1Suff w/o Lat.	12	98158	guilty	1.0	0.0	False
99.2	0.0	2Suff RealStemNW	25	99200	hopeively	0.0	1.0	False
100.551	0.0	0Suff NW	4	100551	diruce	0.0	1.0	False
101.818	0.0	1Suff RealStemNW	15	101818	extensful	0.0	1.0	False
103.518	0.0	1Suff PseudoStemNW	14	103518	rumical	0.0	1.0	False
104.727	0.0	2Suff RealStemNW	25	104727	editionate	0.0	1.0	False
106.511	0.0	2Suff PseudoStemNW	24	106511	denboderation	0.0	1.0	False
108.812	0.0	2Suff w/o Lat.	22	108812	ritualistic	1.0	0.0	False
110.779	0.0	0Suff w/o Lat.	2	110779	pole	1.0	0.0	False
111.863	0.0	0Suff w/o Lat.	2	111863	accident	1.0	0.0	False
112.863	0.0	2Suff w/o Lat.	22	112863	peacefully	1.0	0.0	False
113.847	0.0	0Suff w/o Lat.	2	113847	guard	1.0	0.0	False
114.88	0.0	1Suff RealStemNW	15	114880	developward	0.0	1.0	False
116.272	0.0	1Suff RealStemNW	15	116272	thoughtive	0.0	1.0	False
117.589	0.0	2Suff RealStemNW	25	117589	commutfully	0.0	1.0	False
119.165	0.0	0Suff NW	4	119165	subplence	0.0	1.0	False
121.199	0.0	1Suff PseudoStemNW	14	121199	girernment	0.0	1.0	False
122.833	0.0	1Suff PseudoStemNW	14	122833	worchless	0.0	1.0	False
124.633	0.0	1Suff w/o Lat.	12	124633	competitive	1.0	0.0	False
125.9	0.0	2Suff RealStemNW	25	125900	assassinfully	0.0	1.0	False
128.259	0.0	2Suff w/o Lat.	22	128259	trivialize	1.0	0.0	False
129.535	0.0	1Suff w/o Lat.	12	129535	poetic	1.0	0.0	False
130.693	0.0	2Suff w/o Lat.	22	130693	fatally	1.0	0.0	False
131.944	0.0	1Suff w/o Lat.	12	131944	periodic	1.0	0.0	False
133.286	0.0	2Suff w/o Lat.	22	133286	globally	1.0	0.0	False
134.228	0.0	0Suff NW	4	134228	awd	0.0	1.0	False
135.286	0.0	2Suff Composite	23	135286	quotation	1.0	0.0	False
136.379	0.0	2Suff RealStemNW	25	136379	differalism	0.0	1.0	False
137.829	0.0	2Suff w/o Lat.	22	137829	healthily	1.0	0.0	False
139.154	0.0	0Suff NW	4	139154	gloo	0.0	1.0	False
140.288	0.0	2Suff Composite	23	140288	biblical	1.0	0.0	False
141.505	0.0	0Suff w/o Lat.	2	141505	protect	1.0	0.0	False
142.522	0.0	1Suff PseudoStemNW	14	142522	headthy	0.0	1.0	False
144.006	0.0	2Suff RealStemNW	25	144006	relatifiable	0.0	1.0	False
145.223	0.0	1Suff w/o Lat.	12	145223	substantial	1.0	0.0	False
146.548	0.0	2Suff w/o Lat.	22	146548	architectural	1.0	0.0	False
147.907	0.0	1Suff PseudoStemNW	14	147907	falal	0.0	1.0	False
149.316	0.0	2Suff w/o Lat.	22	149316	reasonably	1.0	0.0	False
150.424	0.0	2Suff RealStemNW	25	150424	notural	0.0	1.0	False
151.775	0.0	0Suff w/o Lat.	2	151775	dead	1.0	0.0	False
152.942	0.0	0Suff w/o Lat.	2	152942	essence	1.0	0.0	False
154.151	0.0	2Suff PseudoStemNW	24	154151	tutiously	0.0	1.0	False
155.543	0.0	2Suff w/o Lat.	22	155543	hopefully	1.0	0.0	False
156.56	0.0	0Suff NW	4	156560	grame	0.0	1.0	False
158.394	0.0	1Suff RealStemNW	15	158394	painable	0.0	0.0	True
159.544	0.0	0Suff NW	4	159544	moel	0.0	1.0	False
160.761	0.0	0Suff w/o Lat.	2	160761	decide	1.0	0.0	False
161.995	0.0	0Suff NW	4	161995	han	0.0	1.0	False
163.212	0.0	0Suff w/o Lat.	2	163212	triumph	1.0	0.0	False
164.37	0.0	2Suff w/o Lat.	22	164370	polarity	1.0	0.0	False
165.721	0.0	2Suff PseudoStemNW	24	165721	mosimization	0.0	1.0	False
167.613	0.0	0Suff w/o Lat.	2	167613	educate	1.0	0.0	False
168.914	0.0	1Suff RealStemNW	15	168914	realify	0.0	1.0	False
170.222	0.0	2Suff w/o Lat.	22	170222	forgetfulness	1.0	0.0	False
171.714	0.0	2Suff RealStemNW	25	171714	transitality	0.0	n/a	False
174.115	0.0	0Suff w/o Lat.	2	174115	distinct	1.0	0.0	False
175.599	0.0	2Suff RealStemNW	25	175599	accidentical	0.0	1.0	False
177.433	0.0	2Suff RealStemNW	25	177433	realional	0.0	1.0	False
178.833	0.0	1Suff w/ Lat.	11	178833	progressive	1.0	0.0	False
180.017	0.0	2Suff w/o Lat.	22	180017	racially	1.0	0.0	False
182.368	0.0	1Suff w/o Lat.	12	182368	peaceful	1.0	0.0	False
183.735	0.0	1Suff PseudoStemNW	14	183735	subplencial	0.0	1.0	False
185.085	0.0	1Suff RealStemNW	15	185085	leador	0.0	1.0	False
186.744	0.0	1Suff w/o Lat.	12	186744	thicken	1.0	0.0	False
188.144	0.0	1Suff RealStemNW	15	188144	peaceive	0.0	1.0	False
189.503	0.0	0Suff w/o Lat.	2	189503	confess	1.0	0.0	False
190.612	0.0	2Suff PseudoStemNW	24	190612	pafferential	0.0	1.0	False
192.404	0.0	2Suff w/o Lat.	22	192404	executioner	1.0	0.0	False
194.646	0.0	0Suff w/o Lat.	2	194646	pain	1.0	0.0	False
195.722	0.0	2Suff w/o Lat.	22	195722	fatalist	1.0	0.0	False
197.156	0.0	2Suff w/o Lat.	22	197156	moisturize	1.0	0.0	False
198.256	0.0	2Suff w/ Lat.	21	198256	projectionist	1.0	0.0	False
203.649	0.0	2Suff RealStemNW	25	203649	predictator	0.0	1.0	False
205.65	0.0	1Suff w/o Lat.	12	205650	distinctive	1.0	0.0	False
206.892	0.0	0Suff NW	4	206892	rhylph	0.0	1.0	False
208.051	0.0	2Suff PseudoStemNW	24	208051	essoilially	0.0	1.0	False
209.284	0.0	2Suff w/ Lat.	21	209284	affirmatively	1.0	0.0	False
210.718	0.0	1Suff PseudoStemNW	14	210718	eetward	0.0	1.0	False
211.835	0.0	1Suff RealStemNW	15	211835	differious	0.0	1.0	False
213.244	0.0	2Suff w/o Lat.	22	213244	originally	1.0	0.0	False
214.444	0.0	1Suff PseudoStemNW	14	214444	concolerable	0.0	1.0	False
215.77	0.0	0Suff w/o Lat.	2	215770	rhythm	1.0	0.0	False
216.878	0.0	2Suff Composite	23	216878	allegation	1.0	0.0	False
218.02	0.0	2Suff RealStemNW	25	218020	materialional	0.0	1.0	False
219.621	0.0	1Suff PseudoStemNW	14	219621	prebitable	0.0	1.0	False
221.055	0.0	1Suff w/o Lat.	12	221055	transition	1.0	0.0	False
222.363	0.0	1Suff PseudoStemNW	14	222363	orifadal	0.0	1.0	False
223.597	0.0	2Suff w/o Lat.	22	223597	thoughtfully	1.0	0.0	False
224.739	0.0	2Suff RealStemNW	25	224739	isolatmental	0.0	1.0	False
226.44	0.0	2Suff w/o Lat.	22	226440	successfully	1.0	0.0	False
227.573	0.0	0Suff w/o Lat.	2	227573	intense	1.0	0.0	False
228.774	0.0	2Suff w/o Lat.	22	228774	differently	1.0	0.0	False
229.991	0.0	2Suff w/o Lat.	22	229991	deadliness	1.0	0.0	False
230.983	0.0	0Suff w/o Lat.	2	230983	profit	1.0	0.0	False
232.166	0.0	2Suff RealStemNW	25	232166	periodally	0.0	0.0	True
233.325	0.0	1Suff PseudoStemNW	14	233325	fleepy	0.0	1.0	False
234.475	0.0	2Suff w/o Lat.	22	234475	fatalism	1.0	0.0	False
236.318	0.0	0Suff NW	4	236318	wroty	0.0	1.0	False
237.526	0.0	2Suff PseudoStemNW	24	237526	hodelessly	0.0	1.0	False
239.01	0.0	1Suff RealStemNW	15	239010	financeic	0.0	1.0	False
240.636	0.0	2Suff RealStemNW	25	240636	marketfulness	0.0	1.0	False
242.611	0.0	2Suff w/o Lat.	22	242611	directorship	1.0	0.0	False
244.47	0.0	1Suff w/o Lat.	12	244470	musical	1.0	0.0	False
245.512	0.0	2Suff RealStemNW	25	245512	friendionist	0.0	1.0	False
247.204	0.0	1Suff w/o Lat.	12	247204	difference	1.0	0.0	False
248.605	0.0	0Suff NW	4	248605	restit	0.0	1.0	False
249.747	0.0	0Suff NW	4	249747	fleed	0.0	0.0	True
251.372	0.0	1Suff w/o Lat.	12	251372	gracious	1.0	0.0	False
252.648	0.0	0Suff NW	4	252648	desalk	0.0	1.0	False
253.831	0.0	1Suff w/o Lat.	12	253831	soften	1.0	0.0	False
254.94	0.0	0Suff w/o Lat.	2	254940	agree	1.0	0.0	False
256.04	0.0	1Suff PseudoStemNW	14	256040	chotintical	0.0	1.0	False
257.266	0.0	0Suff NW	4	257266	cunerogy	0.0	1.0	False
258.724	0.0	0Suff NW	4	258724	ippune	0.0	1.0	False
259.85	0.0	0Suff w/o Lat.	2	259850	edit	1.0	0.0	False
261.075	0.0	1Suff PseudoStemNW	14	261075	coppentate	0.0	1.0	False
262.392	0.0	0Suff w/o Lat.	2	262392	consider	1.0	0.0	False
263.418	0.0	2Suff PseudoStemNW	24	263418	peadership	0.0	1.0	False
265.418	0.0	2Suff w/ Lat.	21	265418	extensively	1.0	0.0	False
266.727	0.0	1Suff PseudoStemNW	14	266727	devadive	0.0	1.0	False
268.402	0.0	0Suff w/o Lat.	2	268402	decor	1.0	0.0	False
269.519	0.0	1Suff w/ Lat.	11	269519	extensive	1.0	0.0	False
270.636	0.0	2Suff w/o Lat.	22	270636	furiously	1.0	0.0	False
272.004	0.0	1Suff RealStemNW	15	272004	manen	0.0	1.0	False
273.196	0.0	1Suff PseudoStemNW	14	273196	hythical	0.0	1.0	False
275.088	0.0	2Suff w/o Lat.	22	275088	regrettably	1.0	0.0	False
276.288	0.0	1Suff w/o Lat.	12	276288	furious	1.0	0.0	False
277.314	0.0	2Suff Composite	23	277314	revitalization	1.0	0.0	False
278.756	0.0	2Suff w/o Lat.	22	278756	agreeably	1.0	0.0	False
279.848	0.0	0Suff w/o Lat.	2	279848	comment	1.0	0.0	False
280.865	0.0	1Suff w/o Lat.	12	280865	soulful	1.0	0.0	False
281.982	0.0	2Suff RealStemNW	25	281982	impressliness	0.0	1.0	False
283.882	0.0	2Suff w/o Lat.	22	283882	commentator	1.0	0.0	False
285.366	0.0	0Suff NW	4	285366	mowth	0.0	1.0	False
286.55	0.0	1Suff PseudoStemNW	14	286550	urmerly	0.0	1.0	False
287.842	0.0	1Suff w/o Lat.	12	287842	useful	1.0	0.0	False
288.9	0.0	1Suff PseudoStemNW	14	288900	etilor	0.0	1.0	False
290.176	0.0	1Suff w/o Lat.	12	290176	ritualist	1.0	0.0	False
291.368	0.0	0Suff NW	4	291368	stumia	0.0	1.0	False
292.585	0.0	2Suff Composite	23	292585	canonical	1.0	1.0	True
293.869	0.0	1Suff w/o Lat.	12	293869	regrettable	1.0	0.0	False
295.519	0.0	1Suff PseudoStemNW	14	295519	affallion	0.0	1.0	False
297.12	0.0	2Suff w/o Lat.	22	297120	awfully	1.0	0.0	False
298.32	0.0	1Suff w/o Lat.	12	298320	hopeful	1.0	0.0	False
299.295	0.0	0Suff NW	4	299295	atrie	0.0	1.0	False
300.546	0.0	0Suff NW	4	300546	thash	0.0	1.0	False
302.388	0.0	2Suff RealStemNW	25	302388	substanceical	0.0	1.0	False
304.08	0.0	1Suff w/o Lat.	12	304080	education	1.0	0.0	False
305.222	0.0	1Suff w/o Lat.	12	305222	idealize	1.0	0.0	False
306.489	0.0	2Suff PseudoStemNW	24	306489	orifadator	0.0	1.0	False
307.873	0.0	0Suff w/o Lat.	2	307873	music	1.0	0.0	False
308.973	0.0	0Suff w/o Lat.	2	308973	sterile	1.0	0.0	False
310.307	0.0	1Suff RealStemNW	15	310307	familior	0.0	1.0	False
311.574	0.0	0Suff w/o Lat.	2	311574	ideal	1.0	0.0	False
312.691	0.0	2Suff RealStemNW	25	312691	relateness	0.0	1.0	False
314.5	0.0	0Suff w/o Lat.	2	314500	nerve	1.0	0.0	False
315.559	0.0	0Suff NW	4	315559	esdybit	0.0	1.0	False
316.742	0.0	0Suff w/o Lat.	2	316742	direct	1.0	0.0	False
317.734	0.0	1Suff w/o Lat.	12	317734	timely	1.0	0.0	False
318.901	0.0	0Suff w/o Lat.	2	318901	adapt	1.0	0.0	False
319.952	0.0	0Suff NW	4	319952	preguct	0.0	1.0	False
321.285	0.0	2Suff RealStemNW	25	321285	moistantly	0.0	1.0	False
322.961	0.0	1Suff RealStemNW	15	322961	marginic	0.0	1.0	False
324.953	0.0	0Suff NW	4	324953	falget	0.0	1.0	False
326.695	0.0	0Suff NW	4	326695	analk	0.0	1.0	False
327.754	0.0	0Suff w/o Lat.	2	327754	part	1.0	0.0	False
328.896	0.0	1Suff w/o Lat.	12	328896	frightful	1.0	0.0	False
330.188	0.0	1Suff w/o Lat.	12	330188	statistical	1.0	0.0	False
331.705	0.0	2Suff RealStemNW	25	331705	financeical	0.0	1.0	False
333.222	0.0	2Suff RealStemNW	25	333222	aimiously	0.0	n/a	False
335.623	0.0	2Suff PseudoStemNW	24	335623	ictressionism	0.0	1.0	False
336.882	0.0	2Suff w/ Lat.	21	336882	availability	1.0	0.0	False
338.191	0.0	1Suff w/o Lat.	12	338191	forgetful	1.0	0.0	False
339.558	0.0	1Suff w/o Lat.	12	339558	commentate	1.0	1.0	True
341.108	0.0	1Suff PseudoStemNW	14	341108	thashful	0.0	1.0	False
342.642	0.0	2Suff w/o Lat.	22	342642	ethically	1.0	0.0	False
343.701	0.0	2Suff w/o Lat.	22	343701	marketability	1.0	0.0	False
345.184	0.0	0Suff NW	4	345184	provame	0.0	1.0	False
346.568	0.0	0Suff w/o Lat.	2	346568	guilt	1.0	0.0	False
347.552	0.0	2Suff RealStemNW	25	347552	orderionist	0.0	1.0	False
348.994	0.0	2Suff PseudoStemNW	24	348994	carbisalistic	0.0	1.0	False
350.119	0.0	2Suff w/o Lat.	22	350119	governmental	1.0	n/a	False
352.512	0.0	2Suff w/o Lat.	22	352512	definitive	1.0	0.0	False
353.679	0.0	1Suff RealStemNW	15	353679	sterilist	0.0	0.0	True
355.388	0.0	2Suff PseudoStemNW	24	355388	utefully	0.0	1.0	False
356.638	0.0	1Suff w/o Lat.	12	356638	different	1.0	0.0	False
357.738	0.0	2Suff w/o Lat.	22	357738	validation	1.0	0.0	False
358.864	0.0	2Suff PseudoStemNW	24	358864	chirdishly	0.0	1.0	False
360.356	0.0	2Suff RealStemNW	25	360356	subjectously	0.0	1.0	False
361.681	0.0	1Suff RealStemNW	15	361681	furance	0.0	1.0	False
363.298	0.0	2Suff w/o Lat.	22	363298	outwardly	1.0	0.0	False
370.276	0.0	2Suff RealStemNW	25	370276	familierage	0.0	1.0	False
371.518	0.0	2Suff PseudoStemNW	24	371518	pafferentiate	0.0	1.0	False
372.735	0.0	0Suff w/o Lat.	2	372735	speed	1.0	0.0	False
373.727	0.0	0Suff w/o Lat.	2	373727	compete	1.0	0.0	False
374.852	0.0	1Suff PseudoStemNW	14	374852	chansotion	0.0	1.0	False
376.577	0.0	0Suff NW	4	376577	prodfess	0.0	1.0	False
377.911	0.0	2Suff w/o Lat.	22	377911	rhythmically	1.0	0.0	False
379.012	0.0	0Suff w/o Lat.	2	379012	origin	1.0	0.0	False
380.145	0.0	0Suff NW	4	380145	steadth	0.0	n/a	False
382.546	0.0	2Suff Composite	23	382546	cannibalistic	1.0	0.0	False
383.888	0.0	2Suff PseudoStemNW	24	383888	fleedily	0.0	n/a	False
386.28	0.0	0Suff NW	4	386280	tuty	0.0	1.0	False
387.331	0.0	0Suff NW	4	387331	devade	0.0	1.0	False
388.498	0.0	2Suff w/o Lat.	22	388498	musically	1.0	0.0	False
389.498	0.0	1Suff w/ Lat.	11	389498	subjective	1.0	0.0	False
390.773	0.0	2Suff w/o Lat.	22	390773	leaderless	1.0	0.0	False
392.849	0.0	2Suff w/o Lat.	22	392849	relativity	1.0	0.0	False
393.924	0.0	2Suff Composite	23	393924	corporation	1.0	0.0	False
395.475	0.0	1Suff w/o Lat.	12	395475	financial	1.0	0.0	False
396.5	0.0	2Suff RealStemNW	25	396500	affectorship	0.0	1.0	False
397.892	0.0	2Suff PseudoStemNW	24	397892	steadthily	0.0	1.0	False
399.343	0.0	1Suff w/o Lat.	12	399343	guardian	1.0	0.0	False
400.46	0.0	0Suff NW	4	400460	uspasion	0.0	1.0	False
401.585	0.0	0Suff NW	4	401585	ewsib	0.0	1.0	False
402.694	0.0	2Suff PseudoStemNW	24	402694	pipplification	0.0	1.0	False
404.469	0.0	2Suff w/o Lat.	22	404469	designation	1.0	0.0	False
406.303	0.0	1Suff w/o Lat.	12	406303	cheerful	1.0	0.0	False
407.312	0.0	2Suff w/o Lat.	22	407312	hopelessly	1.0	0.0	False
408.221	0.0	2Suff PseudoStemNW	24	408221	sorkener	0.0	1.0	False
409.329	0.0	2Suff Composite	23	409329	confederation	1.0	0.0	False
410.788	0.0	0Suff w/o Lat.	2	410788	time	1.0	0.0	False
411.755	0.0	1Suff w/ Lat.	11	411755	affection	1.0	0.0	False
412.814	0.0	2Suff RealStemNW	25	412814	satirally	0.0	1.0	False
414.522	0.0	1Suff PseudoStemNW	14	414522	pavediadist	0.0	1.0	False
415.773	0.0	2Suff RealStemNW	25	415773	cheerability	0.0	1.0	False
417.407	0.0	0Suff NW	4	417407	nerbs	0.0	1.0	False
418.724	0.0	1Suff RealStemNW	15	418724	exhaustful	0.0	0.0	True
419.832	0.0	0Suff NW	4	419832	prebit	0.0	1.0	False
421.483	0.0	1Suff w/o Lat.	12	421483	glorify	1.0	0.0	False
422.483	0.0	0Suff w/o Lat.	2	422483	differ	1.0	0.0	False
423.567	0.0	1Suff w/ Lat.	11	423567	impression	1.0	0.0	False
424.484	0.0	2Suff w/ Lat.	21	424484	subjectivity	1.0	0.0	False
425.484	0.0	2Suff PseudoStemNW	24	425484	eltensively	0.0	1.0	False
426.926	0.0	2Suff Composite	23	426926	deterministic	1.0	0.0	False
428.227	0.0	0Suff w/o Lat.	2	428227	material	1.0	0.0	False
429.46	0.0	2Suff PseudoStemNW	24	429460	rerativity	0.0	1.0	False
430.744	0.0	2Suff w/o Lat.	22	430744	painlessly	1.0	0.0	False
431.869	0.0	1Suff PseudoStemNW	14	431869	betiecable	0.0	1.0	False
433.078	0.0	2Suff RealStemNW	25	433078	dramationist	0.0	1.0	False
434.77	0.0	0Suff NW	4	434770	essoils	0.0	1.0	False
435.862	0.0	0Suff w/o Lat.	2	435862	rest	1.0	0.0	False
437.104	0.0	1Suff w/o Lat.	12	437104	believable	1.0	0.0	False
438.213	0.0	2Suff PseudoStemNW	24	438213	vimidation	0.0	1.0	False
439.589	0.0	0Suff w/o Lat.	2	439589	ethic	1.0	0.0	False
440.589	0.0	1Suff PseudoStemNW	14	440589	thacken	0.0	1.0	False
441.672	0.0	0Suff NW	4	441672	isotent	0.0	0.0	True
442.731	0.0	0Suff NW	4	442731	coppent	0.0	n/a	False
445.124	0.0	1Suff w/o Lat.	12	445124	magnetic	1.0	0.0	False
446.182	0.0	2Suff PseudoStemNW	24	446182	ewsibally	0.0	1.0	False
447.299	0.0	2Suff w/o Lat.	22	447299	nervously	1.0	0.0	False
448.366	0.0	2Suff w/o Lat.	22	448366	editorial	1.0	0.0	False
449.7	0.0	0Suff NW	4	449700	sushect	0.0	1.0	False
450.875	0.0	0Suff w/o Lat.	2	450875	cheer	1.0	0.0	False
451.834	0.0	1Suff w/o Lat.	12	451834	persuasive	1.0	0.0	False
452.993	0.0	2Suff PseudoStemNW	24	452993	concuchualize	0.0	1.0	False
454.143	0.0	2Suff w/o Lat.	22	454143	speedily	1.0	0.0	False
455.102	0.0	2Suff RealStemNW	25	455102	considerishly	0.0	1.0	False
456.444	0.0	1Suff PseudoStemNW	14	456444	fleedy	0.0	1.0	False
457.869	0.0	1Suff PseudoStemNW	14	457869	gulbsian	0.0	1.0	False
458.978	0.0	2Suff RealStemNW	25	458978	executarity	0.0	1.0	False
460.036	0.0	1Suff w/o Lat.	12	460036	marginal	1.0	0.0	False
461.012	0.0	2Suff w/o Lat.	22	461012	exhaustively	1.0	0.0	False
462.112	0.0	0Suff w/o Lat.	2	462112	mobile	1.0	0.0	False
463.096	0.0	0Suff w/ Lat.	1	463096	extend	1.0	0.0	False
464.013	0.0	0Suff w/o Lat.	2	464013	out	1.0	0.0	False
464.988	0.0	2Suff w/o Lat.	22	464988	assassination	1.0	0.0	False
466.122	0.0	2Suff RealStemNW	25	466122	believator	0.0	1.0	False
467.364	0.0	1Suff w/o Lat.	12	467364	government	1.0	0.0	False
468.681	0.0	1Suff PseudoStemNW	14	468681	rhylphic	0.0	1.0	False
469.915	0.0	0Suff NW	4	469915	goult	0.0	1.0	False
471.132	0.0	1Suff w/o Lat.	12	471132	leader	1.0	0.0	False
472.282	0.0	1Suff w/o Lat.	12	472282	speedy	1.0	0.0	False
473.224	0.0	1Suff RealStemNW	15	473224	nervate	0.0	1.0	False
474.458	0.0	2Suff PseudoStemNW	24	474458	paftially	0.0	1.0	False
475.658	0.0	1Suff w/o Lat.	12	475658	ethical	1.0	0.0	False
476.658	0.0	1Suff RealStemNW	15	476658	intensful	0.0	0.0	True
478.084	0.0	2Suff w/o Lat.	22	478084	restlessness	1.0	0.0	False
479.609	0.0	0Suff NW	4	479609	wead	0.0	1.0	False
481.31	0.0	2Suff PseudoStemNW	24	481310	orifadality	0.0	1.0	False
482.643	0.0	2Suff RealStemNW	25	482643	musicical	0.0	n/a	False
485.044	0.0	0Suff NW	4	485044	deabon	0.0	1.0	False
486.995	0.0	0Suff w/o Lat.	2	486995	execute	1.0	0.0	False
488.237	0.0	0Suff w/o Lat.	2	488237	sleep	1.0	0.0	False
489.17	0.0	1Suff PseudoStemNW	14	489170	stumial	0.0	1.0	False
490.496	0.0	2Suff w/o Lat.	22	490496	mobilization	1.0	0.0	False
491.755	0.0	2Suff PseudoStemNW	24	491755	reratively	0.0	1.0	False
493.13	0.0	0Suff w/ Lat.	1	493130	concept	1.0	0.0	False
494.18	0.0	2Suff PseudoStemNW	24	494180	potarity	0.0	1.0	False
495.406	0.0	1Suff w/o Lat.	12	495406	designate	1.0	0.0	False
496.564	0.0	0Suff NW	4	496564	concoler	0.0	1.0	False
497.59	0.0	0Suff NW	4	497590	pasnet	0.0	1.0	False
498.698	0.0	1Suff PseudoStemNW	14	498698	arful	0.0	1.0	False
499.707	0.0	2Suff w/o Lat.	22	499707	friendliness	1.0	0.0	False
500.766	0.0	2Suff PseudoStemNW	24	500766	watefulness	0.0	1.0	False
501.883	0.0	0Suff w/o Lat.	2	501883	fast	1.0	0.0	False
503.066	0.0	2Suff w/o Lat.	22	503066	leadership	1.0	0.0	False
504.05	0.0	2Suff w/o Lat.	22	504050	educational	1.0	0.0	False
505.034	0.0	1Suff PseudoStemNW	14	505034	appigental	0.0	0.0	True
506.167	0.0	0Suff NW	4	506167	affall	0.0	1.0	False
507.801	0.0	0Suff NW	4	507801	peece	0.0	1.0	False
509.068	0.0	1Suff PseudoStemNW	14	509068	deabonable	0.0	1.0	False
510.627	0.0	2Suff w/o Lat.	22	510627	directional	1.0	0.0	False
511.861	0.0	1Suff PseudoStemNW	14	511861	diruction	0.0	1.0	False
512.953	0.0	1Suff w/o Lat.	12	512953	relation	1.0	0.0	False
514.161	0.0	0Suff NW	4	514161	thack	0.0	1.0	False
515.77	0.0	2Suff PseudoStemNW	24	515770	perburbation	0.0	0.0	True
517.696	0.0	2Suff PseudoStemNW	24	517696	pafleurization	0.0	1.0	False
518.938	0.0	2Suff PseudoStemNW	24	518938	squasification	0.0	1.0	False
520.263	0.0	2Suff w/ Lat.	21	520263	persistently	1.0	0.0	False
534.168	0.0	2Suff w/o Lat.	22	534168	occasionally	1.0	0.0	False
535.135	0.0	2Suff RealStemNW	25	535135	marginical	0.0	1.0	False
536.552	0.0	2Suff w/o Lat.	22	536552	essentially	1.0	0.0	False
537.735	0.0	0Suff NW	4	537735	ute	0.0	1.0	False
538.769	0.0	2Suff RealStemNW	25	538769	harmiously	0.0	1.0	False
540.528	0.0	1Suff PseudoStemNW	14	540528	goulty	0.0	1.0	False
542.045	0.0	2Suff w/o Lat.	22	542045	decorator	1.0	0.0	False
543.812	0.0	0Suff NW	4	543812	manfin	0.0	1.0	False
545.279	0.0	0Suff NW	4	545279	sest	0.0	1.0	False
546.83	0.0	1Suff RealStemNW	15	546830	directar	0.0	1.0	False
548.155	0.0	2Suff w/o Lat.	22	548155	aimlessly	1.0	0.0	False
549.381	0.0	1Suff RealStemNW	15	549381	heroal	0.0	1.0	False
550.481	0.0	2Suff w/ Lat.	21	550481	predictably	1.0	0.0	False
552.607	0.0	2Suff w/o Lat.	22	552607	developmental	1.0	0.0	False
553.832	0.0	2Suff w/o Lat.	22	553832	isolationist	1.0	1.0	True
555.032	0.0	1Suff w/ Lat.	11	555032	predictable	1.0	0.0	False
556.174	0.0	2Suff w/o Lat.	22	556174	considerably	1.0	0.0	False
557.358	0.0	0Suff NW	4	557358	eshaums	0.0	1.0	False
558.508	0.0	2Suff PseudoStemNW	24	558508	awditional	0.0	1.0	False
559.917	0.0	2Suff PseudoStemNW	24	559917	analkability	0.0	1.0	False
561.276	0.0	2Suff RealStemNW	25	561276	provocatfully	0.0	1.0	False
562.418	0.0	2Suff RealStemNW	25	562418	notifilessly	0.0	1.0	False
563.693	0.0	2Suff w/o Lat.	22	563693	basically	1.0	0.0	False
564.744	0.0	0Suff NW	4	564744	stitile	0.0	1.0	False
565.786	0.0	2Suff w/o Lat.	22	565786	distinctively	1.0	0.0	False
566.919	0.0	2Suff PseudoStemNW	24	566919	snightfully	0.0	1.0	False
568.528	0.0	0Suff NW	4	568528	onnense	0.0	1.0	False
569.679	0.0	1Suff w/o Lat.	12	569679	manly	1.0	0.0	False
571.237	0.0	2Suff RealStemNW	25	571237	fatical	0.0	1.0	False
572.454	0.0	2Suff PseudoStemNW	24	572454	nerbousness	0.0	1.0	False
573.93	0.0	2Suff w/o Lat.	22	573930	thickener	1.0	1.0	True
575.239	0.0	2Suff w/o Lat.	22	575239	awfulness	1.0	0.0	False
577.173	0.0	0Suff NW	4	577173	corzess	0.0	1.0	False
578.556	0.0	2Suff RealStemNW	25	578556	forgetiveness	0.0	1.0	False
580.54	0.0	1Suff RealStemNW	15	580540	ritualify	0.0	1.0	False
582.182	0.0	1Suff w/o Lat.	12	582182	marketable	1.0	0.0	False
584.116	0.0	2Suff w/o Lat.	22	584116	orderliness	1.0	n/a	False
586.509	0.0	2Suff RealStemNW	25	586509	guardifiance	0.0	1.0	False
588.518	0.0	2Suff w/o Lat.	22	588518	graciously	1.0	0.0	False
589.601	0.0	0Suff NW	4	589601	priueur	0.0	1.0	False
590.802	0.0	2Suff w/o Lat.	22	590802	protectionist	1.0	0.0	False
592.836	0.0	1Suff w/o Lat.	12	592836	familiar	1.0	0.0	False
594.278	0.0	0Suff w/o Lat.	2	594278	man	1.0	0.0	False
595.145	0.0	0Suff NW	4	595145	affaid	0.0	0.0	True
596.112	0.0	2Suff PseudoStemNW	24	596112	paftiality	0.0	1.0	False
597.796	0.0	1Suff RealStemNW	15	597796	gracance	0.0	1.0	False
599.013	0.0	0Suff NW	4	599013	mevion	0.0	1.0	False
600.08	0.0	2Suff w/o Lat.	22	600080	notably	1.0	0.0	False
601.263	0.0	1Suff w/o Lat.	12	601263	gleeful	1.0	0.0	False
602.755	0.0	1Suff RealStemNW	15	602755	protectate	0.0	n/a	False
605.173	0.0	0Suff NW	4	605173	ais	0.0	1.0	False
606.281	0.0	1Suff w/o Lat.	12	606281	fasten	1.0	0.0	False
607.957	0.0	1Suff w/ Lat.	11	607957	mistaken	1.0	0.0	False
608.907	0.0	1Suff PseudoStemNW	14	608907	cunerogial	0.0	1.0	False
610.066	0.0	1Suff w/o Lat.	12	610066	original	1.0	0.0	False
611.066	0.0	0Suff NW	4	611066	cossete	0.0	1.0	False
612.133	0.0	1Suff PseudoStemNW	14	612133	affaidative	0.0	1.0	False
613.55	0.0	0Suff NW	4	613550	attossin	0.0	1.0	False
614.609	0.0	1Suff RealStemNW	15	614609	mistaker	0.0	1.0	False
616.118	0.0	0Suff NW	4	616118	degor	0.0	1.0	False
617.902	0.0	2Suff w/o Lat.	22	617902	idealization	1.0	0.0	False
619.06	0.0	1Suff RealStemNW	15	619060	differify	0.0	1.0	False
620.461	0.0	0Suff NW	4	620461	lenction	0.0	1.0	False
621.636	0.0	0Suff w/o Lat.	2	621636	globe	1.0	0.0	False
622.87	0.0	2Suff PseudoStemNW	24	622870	coppentator	0.0	1.0	False
624.087	0.0	2Suff w/o Lat.	22	624087	differential	1.0	0.0	False
625.471	0.0	2Suff Composite	23	625471	utilization	1.0	0.0	False
626.638	0.0	2Suff Composite	23	626638	vitalization	1.0	0.0	False
627.805	0.0	0Suff NW	4	627805	mosime	0.0	0.0	True
629.03	0.0	0Suff NW	4	629030	vimid	0.0	1.0	False
630.489	0.0	2Suff Composite	23	630489	sterilization	1.0	0.0	False
631.939	0.0	1Suff PseudoStemNW	14	631939	ramial	0.0	1.0	False
633.148	0.0	1Suff PseudoStemNW	14	633148	falumful	0.0	1.0	False
634.357	0.0	2Suff RealStemNW	25	634357	confessality	0.0	1.0	False
636.249	0.0	1Suff PseudoStemNW	14	636249	restittable	0.0	1.0	False
638.0	0.0	1Suff w/o Lat.	12	638000	thankful	1.0	0.0	False
639.1	0.0	1Suff PseudoStemNW	14	639100	essoilial	0.0	1.0	False
640.15	0.0	0Suff w/o Lat.	2	640150	fright	1.0	0.0	False
641.367	0.0	0Suff NW	4	641367	glibe	0.0	1.0	False
642.551	0.0	1Suff PseudoStemNW	14	642551	paftial	0.0	1.0	False
643.626	0.0	1Suff RealStemNW	15	643626	immunist	0.0	1.0	False
645.435	0.0	1Suff PseudoStemNW	14	645435	analkable	0.0	1.0	False
646.502	0.0	1Suff w/o Lat.	12	646502	considerate	1.0	0.0	False
648.003	0.0	2Suff w/o Lat.	22	648003	fatality	1.0	0.0	False
649.236	0.0	2Suff w/o Lat.	22	649236	guiltiness	1.0	1.0	True
651.195	0.0	2Suff w/ Lat.	21	651195	impressionist	1.0	0.0	False
652.446	0.0	2Suff PseudoStemNW	24	652446	cossetitively	0.0	1.0	False
654.113	0.0	1Suff w/o Lat.	12	654113	graceful	1.0	0.0	False
655.255	0.0	0Suff NW	4	655255	chier	0.0	1.0	False
656.672	0.0	2Suff w/o Lat.	22	656672	worthlessness	1.0	0.0	False
658.172	0.0	2Suff PseudoStemNW	24	658172	prodfessively	0.0	1.0	False
659.681	0.0	2Suff w/o Lat.	22	659681	polarize	1.0	0.0	False
660.873	0.0	1Suff w/o Lat.	12	660873	harmless	1.0	0.0	False
661.865	0.0	2Suff RealStemNW	25	661865	soulively	0.0	1.0	False
663.332	0.0	2Suff PseudoStemNW	24	663332	esdybitionism	0.0	1.0	False
664.574	0.0	0Suff NW	4	664574	worch	0.0	1.0	False
665.816	0.0	0Suff NW	4	665816	arx	0.0	1.0	False
666.758	0.0	2Suff Composite	23	666758	organization	1.0	0.0	False
667.834	0.0	0Suff NW	4	667834	orifad	0.0	1.0	False
668.967	0.0	1Suff w/o Lat.	12	668967	painful	1.0	0.0	False
670.034	0.0	1Suff w/o Lat.	12	670034	mythical	1.0	0.0	False
671.11	0.0	2Suff RealStemNW	25	671110	fatantly	0.0	0.0	True
672.735	0.0	0Suff NW	4	672735	instrove	0.0	1.0	False
673.752	0.0	1Suff w/o Lat.	12	673752	relative	1.0	0.0	False
674.969	0.0	2Suff RealStemNW	25	674969	directality	0.0	1.0	False
676.686	0.0	0Suff w/o Lat.	2	676686	fury	1.0	0.0	False
677.954	0.0	1Suff PseudoStemNW	14	677954	uspasional	0.0	1.0	False
679.087	0.0	1Suff PseudoStemNW	14	679087	paskful	0.0	1.0	False
680.571	0.0	2Suff RealStemNW	25	680571	fasticly	0.0	1.0	False
682.438	0.0	2Suff w/o Lat.	22	682438	marginally	1.0	0.0	False
683.839	0.0	1Suff w/o Lat.	12	683839	faithful	1.0	0.0	False
684.981	0.0	2Suff w/o Lat.	22	684981	believably	1.0	0.0	False
686.323	0.0	2Suff w/o Lat.	22	686323	mythically	1.0	0.0	False
687.29	0.0	0Suff NW	4	687290	prowert	0.0	1.0	False
688.498	0.0	2Suff RealStemNW	25	688498	persuasfully	0.0	0.0	True
689.682	0.0	1Suff w/o Lat.	12	689682	global	1.0	0.0	False
690.699	0.0	2Suff PseudoStemNW	24	690699	otification	0.0	1.0	False
691.841	0.0	1Suff RealStemNW	15	691841	delightive	0.0	1.0	False
693.208	0.0	0Suff w/o Lat.	2	693208	regret	1.0	0.0	False
704.462	0.0	2Suff PseudoStemNW	24	704462	comlomation	0.0	1.0	False
705.62	0.0	0Suff NW	4	705620	headth	0.0	1.0	False
706.854	0.0	0Suff NW	4	706854	finiles	0.0	1.0	False
707.929	0.0	2Suff w/o Lat.	22	707929	faithfully	1.0	0.0	False
708.921	0.0	0Suff NW	4	708921	rumic	0.0	1.0	False
709.897	0.0	2Suff w/ Lat.	21	709897	impressionism	1.0	0.0	False
710.905	0.0	1Suff RealStemNW	15	710905	architectian	0.0	1.0	False
712.581	0.0	2Suff w/o Lat.	22	712581	materialistic	1.0	0.0	False
714.273	0.0	2Suff PseudoStemNW	24	714273	imoatization	0.0	1.0	False
715.373	0.0	2Suff w/o Lat.	22	715373	profitably	1.0	0.0	False
716.682	0.0	0Suff w/o Lat.	2	716682	race	1.0	0.0	False
718.008	0.0	1Suff w/o Lat.	12	718008	sleepy	1.0	0.0	False
719.141	0.0	0Suff w/o Lat.	2	719141	season	1.0	0.0	False
720.108	0.0	2Suff PseudoStemNW	24	720108	pasklessly	0.0	1.0	False
721.284	0.0	0Suff w/o Lat.	2	721284	ritual	1.0	0.0	False
722.342	0.0	1Suff RealStemNW	15	722342	persuasful	0.0	1.0	False
724.626	0.0	2Suff RealStemNW	25	724626	glorliness	0.0	0.0	True
726.293	0.0	2Suff Composite	23	726293	militarization	1.0	1.0	True
728.077	0.0	2Suff w/o Lat.	22	728077	soulfully	1.0	0.0	False
729.244	0.0	2Suff PseudoStemNW	24	729244	avoldability	0.0	1.0	False
730.987	0.0	2Suff w/ Lat.	21	730987	conceptually	1.0	0.0	False
732.454	0.0	2Suff w/ Lat.	21	732454	affectionate	1.0	0.0	False
733.537	0.0	0Suff w/o Lat.	2	733537	ceremony	1.0	0.0	False
734.513	0.0	1Suff w/o Lat.	12	734513	basic	1.0	0.0	False
735.588	0.0	0Suff w/o Lat.	2	735588	child	1.0	0.0	False
736.43	0.0	1Suff RealStemNW	15	736430	assassinion	0.0	0.0	True
737.564	0.0	0Suff NW	4	737564	dehone	0.0	1.0	False
738.864	0.0	0Suff w/o Lat.	2	738864	isolate	1.0	0.0	False
740.206	0.0	1Suff w/o Lat.	12	740206	deadly	1.0	0.0	False
741.248	0.0	1Suff w/ Lat.	11	741248	exhibition	1.0	0.0	False
742.382	0.0	1Suff PseudoStemNW	14	742382	distawksive	0.0	1.0	False
743.49	0.0	1Suff w/ Lat.	11	743490	affirmative	1.0	0.0	False
744.641	0.0	1Suff w/o Lat.	12	744641	trivial	1.0	0.0	False
745.824	0.0	0Suff w/o Lat.	2	745824	function	1.0	0.0	False
747.0	0.0	0Suff w/o Lat.	2	747000	drama	1.0	0.0	False
747.908	0.0	0Suff w/o Lat.	2	747908	poet	1.0	0.0	False
748.909	0.0	2Suff RealStemNW	25	748909	deadionist	0.0	1.0	False
750.159	0.0	2Suff PseudoStemNW	24	750159	instrovtional	0.0	1.0	False
751.318	0.0	2Suff RealStemNW	25	751318	sleepery	0.0	1.0	False
752.61	0.0	2Suff PseudoStemNW	24	752610	detismsfully	0.0	1.0	False
753.877	0.0	0Suff NW	4	753877	eant	0.0	1.0	False
755.036	0.0	2Suff RealStemNW	25	755036	projectliness	0.0	1.0	False
756.944	0.0	2Suff PseudoStemNW	24	756944	stumiality	0.0	1.0	False
758.453	0.0	1Suff w/o Lat.	12	758453	polar	1.0	0.0	False
760.762	0.0	2Suff PseudoStemNW	24	760762	headthily	0.0	1.0	False
761.963	0.0	2Suff RealStemNW	25	761963	globical	0.0	1.0	False
763.497	0.0	0Suff NW	4	763497	reut	0.0	1.0	False
764.705	0.0	0Suff w/o Lat.	2	764705	glory	1.0	0.0	False
765.956	0.0	1Suff RealStemNW	15	765956	relatful	0.0	1.0	False
767.231	0.0	1Suff RealStemNW	15	767231	considerion	0.0	1.0	False
768.698	0.0	1Suff PseudoStemNW	14	768698	degorate	0.0	1.0	False
770.024	0.0	2Suff PseudoStemNW	24	770024	concolerably	0.0	1.0	False
771.199	0.0	1Suff PseudoStemNW	14	771199	dehonite	0.0	1.0	False
772.174	0.0	0Suff w/o Lat.	2	772174	forget	1.0	0.0	False
773.241	0.0	2Suff w/ Lat.	21	773241	conceptualize	1.0	0.0	False
774.342	0.0	0Suff NW	4	774342	gulbs	0.0	1.0	False
775.709	0.0	1Suff RealStemNW	15	775709	marketless	0.0	0.0	True
778.109	0.0	2Suff w/o Lat.	22	778109	triumphantly	1.0	0.0	False
779.71	0.0	2Suff w/o Lat.	22	779710	manliness	1.0	0.0	False
781.16	0.0	2Suff PseudoStemNW	24	781160	allidation	0.0	1.0	False
783.253	0.0	2Suff RealStemNW	25	783253	definerize	0.0	1.0	False
784.478	0.0	0Suff NW	4	784478	pavediad	0.0	1.0	False
785.67	0.0	1Suff PseudoStemNW	14	785670	mosimize	0.0	1.0	False
786.904	0.0	0Suff w/o Lat.	2	786904	awe	1.0	0.0	False
788.204	0.0	2Suff PseudoStemNW	24	788204	utelessness	0.0	1.0	False
790.188	0.0	0Suff w/ Lat.	1	790188	subject	1.0	0.0	False
791.363	0.0	2Suff w/o Lat.	22	791363	relativism	1.0	n/a	False
793.764	0.0	2Suff PseudoStemNW	24	793764	hythically	0.0	1.0	False
795.148	0.0	0Suff w/o Lat.	2	795148	soul	1.0	0.0	False
796.682	0.0	0Suff w/o Lat.	2	796682	margin	1.0	0.0	False
797.999	0.0	0Suff w/o Lat.	2	797999	fate	1.0	0.0	False
799.024	0.0	0Suff NW	4	799024	imoat	0.0	1.0	False
800.466	0.0	1Suff w/o Lat.	12	800466	dramatize	1.0	0.0	False
801.55	0.0	2Suff PseudoStemNW	24	801550	snoughtlessly	0.0	1.0	False
802.834	0.0	2Suff w/o Lat.	22	802834	immunization	1.0	0.0	False
804.226	0.0	1Suff w/ Lat.	11	804226	instruction	1.0	0.0	False
805.318	0.0	2Suff RealStemNW	25	805318	futurional	0.0	1.0	False
806.718	0.0	2Suff w/o Lat.	22	806718	usefully	1.0	0.0	False
807.66	0.0	2Suff PseudoStemNW	24	807660	vefation	0.0	1.0	False
808.81	0.0	2Suff RealStemNW	25	808810	glorifilessly	0.0	1.0	False
810.344	0.0	2Suff w/o Lat.	22	810344	glorification	1.0	0.0	False
811.47	0.0	0Suff w/o Lat.	2	811470	finance	1.0	0.0	False
812.695	0.0	2Suff Composite	23	812695	characteristic	1.0	0.0	False
813.779	0.0	1Suff w/o Lat.	12	813779	decisive	1.0	0.0	False
814.921	0.0	0Suff NW	4	814921	hode	0.0	1.0	False
815.946	0.0	1Suff w/o Lat.	12	815946	rhythmic	1.0	0.0	False
816.955	0.0	2Suff w/o Lat.	22	816955	magnetically	1.0	0.0	False
817.972	0.0	1Suff w/o Lat.	12	817972	confession	1.0	0.0	False
818.939	0.0	1Suff PseudoStemNW	14	818939	chierful	0.0	1.0	False
820.114	0.0	1Suff w/o Lat.	12	820114	functional	1.0	0.0	False
821.306	0.0	1Suff PseudoStemNW	14	821306	lenctional	0.0	1.0	False
822.456	0.0	1Suff w/o Lat.	12	822456	mobilize	1.0	0.0	False
823.532	0.0	2Suff w/o Lat.	22	823532	confessional	1.0	0.0	False
824.474	0.0	2Suff w/o Lat.	22	824474	relational	1.0	0.0	False
825.624	0.0	1Suff RealStemNW	15	825624	exhibitate	0.0	0.0	True
827.024	0.0	1Suff PseudoStemNW	14	827024	ewsibal	0.0	1.0	False
828.358	0.0	2Suff w/o Lat.	22	828358	accidentally	1.0	0.0	False
829.45	0.0	2Suff PseudoStemNW	24	829450	urhanization	0.0	0.0	True
830.6	0.0	0Suff w/o Lat.	2	830600	design	1.0	0.0	False
831.592	0.0	1Suff w/ Lat.	11	831592	available	1.0	0.0	False
832.501	0.0	2Suff w/o Lat.	22	832501	nervousness	1.0	0.0	False
833.451	0.0	0Suff w/o Lat.	2	833451	soft	1.0	0.0	False
834.352	0.0	2Suff PseudoStemNW	24	834352	figically	0.0	1.0	False
835.619	0.0	1Suff PseudoStemNW	14	835619	thiendly	0.0	1.0	False
836.961	0.0	2Suff RealStemNW	25	836961	graceively	0.0	1.0	False
838.278	0.0	2Suff w/o Lat.	22	838278	cheerfully	1.0	0.0	False
839.97	0.0	0Suff NW	4	839970	rame	0.0	1.0	False
841.387	0.0	2Suff PseudoStemNW	24	841387	artlitackural	0.0	1.0	False
842.604	0.0	0Suff w/ Lat.	1	842604	persist	1.0	0.0	False
843.646	0.0	1Suff w/o Lat.	12	843646	originate	1.0	0.0	False
844.688	0.0	2Suff RealStemNW	25	844688	fatalize	0.0	0.0	True
846.222	0.0	0Suff w/o Lat.	2	846222	thick	1.0	0.0	False
847.281	0.0	0Suff NW	4	847281	wate	0.0	1.0	False
848.839	0.0	1Suff PseudoStemNW	14	848839	orifadate	0.0	1.0	False
849.998	0.0	0Suff w/o Lat.	2	849998	friend	1.0	0.0	False
851.674	0.0	2Suff w/ Lat.	21	851674	mistakenly	1.0	0.0	False
852.891	0.0	2Suff RealStemNW	25	852891	decisfully	0.0	1.0	False
854.316	0.0	2Suff RealStemNW	25	854316	characterional	0.0	0.0	True
856.208	0.0	0Suff NW	4	856208	fars	0.0	1.0	False
870.371	0.0	1Suff w/o Lat.	12	870371	provocative	1.0	0.0	False
871.73	0.0	2Suff w/o Lat.	22	871730	decorative	1.0	0.0	False
872.772	0.0	2Suff w/o Lat.	22	872772	persuasively	1.0	0.0	False
873.872	0.0	2Suff w/o Lat.	22	873872	triviality	1.0	1.0	True
875.481	0.0	2Suff Composite	23	875481	pasteurization	1.0	0.0	False
877.457	0.0	1Suff w/o Lat.	12	877457	agreeable	1.0	0.0	False
878.465	0.0	1Suff PseudoStemNW	14	878465	steadthy	0.0	1.0	False
879.632	0.0	0Suff w/ Lat.	1	879632	impress	1.0	0.0	False
880.649	0.0	1Suff PseudoStemNW	14	880649	snightful	0.0	1.0	False
881.816	0.0	1Suff w/o Lat.	12	881816	delightful	1.0	0.0	False
882.825	0.0	2Suff PseudoStemNW	24	882825	chierfully	0.0	1.0	False
883.984	0.0	0Suff w/o Lat.	2	883984	peace	1.0	0.0	False
885.101	0.0	1Suff w/o Lat.	12	885101	aimless	1.0	0.0	False
886.176	0.0	0Suff w/o Lat.	2	886176	myth	1.0	0.0	False
887.235	0.0	0Suff w/o Lat.	2	887235	use	1.0	0.0	False
888.077	0.0	0Suff w/ Lat.	1	888077	instruct	1.0	0.0	False
888.977	0.0	0Suff NW	4	888977	miccess	0.0	1.0	False
890.077	0.0	0Suff w/o Lat.	2	890077	immune	1.0	0.0	False
891.336	0.0	1Suff RealStemNW	15	891336	provocatful	0.0	1.0	False
893.236	0.0	2Suff Composite	23	893236	categorical	1.0	0.0	False
894.595	0.0	1Suff PseudoStemNW	14	894595	meabonal	0.0	1.0	False
895.671	0.0	2Suff w/o Lat.	22	895671	provocatively	1.0	0.0	False
896.921	0.0	2Suff w/o Lat.	22	896921	considerately	1.0	0.0	False
897.888	0.0	2Suff w/o Lat.	22	897888	relationship	1.0	0.0	False
898.855	0.0	1Suff RealStemNW	15	898855	successate	0.0	1.0	False
900.297	0.0	2Suff PseudoStemNW	24	900297	mistilenly	0.0	1.0	False
901.489	0.0	2Suff PseudoStemNW	24	901489	chirdishness	0.0	1.0	False
902.764	0.0	2Suff PseudoStemNW	24	902764	banically	0.0	0.0	True
904.49	0.0	1Suff RealStemNW	15	904490	periodal	0.0	0.0	True
905.657	0.0	2Suff PseudoStemNW	24	905657	distawksively	0.0	1.0	False
906.841	0.0	2Suff PseudoStemNW	24	906841	affallation	0.0	1.0	False
908.074	0.0	0Suff w/o Lat.	2	908074	note	1.0	0.0	False
909.283	0.0	1Suff w/o Lat.	12	909283	intensive	1.0	0.0	False
910.383	0.0	2Suff w/o Lat.	22	910383	frightfully	1.0	0.0	False
911.775	0.0	0Suff w/o Lat.	2	911775	lead	1.0	0.0	False
912.867	0.0	2Suff w/o Lat.	22	912867	childishness	1.0	0.0	False
914.551	0.0	2Suff PseudoStemNW	24	914551	dehonitive	0.0	1.0	False
915.885	0.0	2Suff PseudoStemNW	24	915885	rhylphically	0.0	1.0	False
917.461	0.0	1Suff w/o Lat.	12	917461	architecture	1.0	0.0	False
919.653	0.0	0Suff w/o Lat.	2	919653	add	1.0	0.0	False
920.662	0.0	0Suff w/o Lat.	2	920662	statistic	1.0	0.0	False
921.737	0.0	2Suff w/o Lat.	22	921737	gloriously	1.0	0.0	False
922.67	0.0	2Suff RealStemNW	25	922670	subjectfully	0.0	0.0	True
923.654	0.0	2Suff w/o Lat.	22	923654	financially	1.0	0.0	False
924.629	0.0	2Suff w/o Lat.	22	924629	fastener	1.0	1.0	True
926.622	0.0	0Suff w/ Lat.	1	926622	exhibit	1.0	0.0	False
928.055	0.0	1Suff RealStemNW	15	928055	isolatate	0.0	1.0	False
929.531	0.0	1Suff RealStemNW	15	929531	availless	0.0	1.0	False
931.482	0.0	1Suff w/o Lat.	12	931482	awful	1.0	0.0	False
932.607	0.0	2Suff RealStemNW	25	932607	poetally	0.0	0.0	True
933.616	0.0	0Suff w/o Lat.	2	933616	grace	1.0	0.0	False
934.691	0.0	1Suff w/o Lat.	12	934691	essential	1.0	0.0	False
935.758	0.0	2Suff w/o Lat.	22	935758	decisively	1.0	0.0	False
937.092	0.0	2Suff w/o Lat.	22	937092	stealthily	1.0	0.0	False
938.759	0.0	2Suff w/o Lat.	22	938759	logically	1.0	0.0	False
939.776	0.0	2Suff w/o Lat.	22	939776	thankfulness	1.0	0.0	False
940.943	0.0	2Suff w/o Lat.	22	940943	guardianship	1.0	n/a	False
943.352	0.0	1Suff RealStemNW	15	943352	confessate	0.0	n/a	False
945.753	0.0	0Suff NW	4	945753	eserete	0.0	1.0	False
946.811	0.0	1Suff RealStemNW	15	946811	polit	0.0	1.0	False
947.987	0.0	2Suff Composite	23	947987	affectation	1.0	1.0	True
949.437	0.0	2Suff Composite	23	949437	satirical	1.0	0.0	False
950.804	0.0	0Suff NW	4	950804	meabon	0.0	1.0	False
951.888	0.0	2Suff PseudoStemNW	24	951888	arfulness	0.0	1.0	False
953.705	0.0	1Suff RealStemNW	15	953705	soulive	0.0	n/a	False
956.106	0.0	1Suff w/o Lat.	12	956106	stealthy	1.0	1.0	True
957.298	0.0	1Suff PseudoStemNW	14	957298	glibal	0.0	1.0	False
958.448	0.0	0Suff w/ Lat.	1	958448	affirm	1.0	0.0	False
959.69	0.0	1Suff RealStemNW	15	959690	educatate	0.0	1.0	False
961.949	0.0	1Suff w/o Lat.	12	961949	worthless	1.0	0.0	False
963.883	0.0	1Suff w/o Lat.	12	963883	occasional	1.0	0.0	False
964.833	0.0	1Suff RealStemNW	15	964833	persistify	0.0	1.0	False
966.259	0.0	1Suff w/o Lat.	12	966259	triumphant	1.0	0.0	False
967.726	0.0	0Suff NW	4	967726	betiece	0.0	0.0	True
968.985	0.0	2Suff w/o Lat.	22	968985	adaptability	1.0	0.0	False
970.435	0.0	2Suff RealStemNW	25	970435	easery	0.0	1.0	False
971.727	0.0	1Suff w/o Lat.	12	971727	logical	1.0	0.0	False
973.436	0.0	1Suff PseudoStemNW	14	973436	sushective	0.0	1.0	False
974.695	0.0	1Suff RealStemNW	15	974695	childory	0.0	1.0	False
975.854	0.0	0Suff w/o Lat.	2	975854	hope	1.0	0.0	False
976.979	0.0	0Suff NW	4	976979	sork	0.0	1.0	False
978.071	0.0	2Suff PseudoStemNW	24	978071	orifadally	0.0	1.0	False
979.138	0.0	1Suff w/o Lat.	12	979138	reasonable	1.0	0.0	False
980.18	0.0	0Suff NW	4	980180	pote	0.0	0.0	True
981.264	0.0	1Suff PseudoStemNW	14	981264	priueurant	0.0	1.0	False
982.447	0.0	2Suff RealStemNW	25	982447	vitalilessly	0.0	1.0	False
984.298	0.0	2Suff PseudoStemNW	24	984298	pasnetically	0.0	1.0	False
985.473	0.0	2Suff w/o Lat.	22	985473	gleefully	1.0	0.0	False
986.749	0.0	0Suff w/o Lat.	2	986749	persuade	1.0	0.0	False
988.016	0.0	1Suff w/o Lat.	12	988016	notable	1.0	0.0	False
989.066	0.0	2Suff w/o Lat.	22	989066	notification	1.0	0.0	False
990.108	0.0	0Suff NW	4	990108	pead	0.0	1.0	False
991.292	0.0	0Suff w/o Lat.	2	991292	ease	1.0	0.0	False
992.667	0.0	0Suff w/o Lat.	2	992667	market	1.0	0.0	False
994.426	0.0	1Suff PseudoStemNW	14	994426	prowertion	0.0	1.0	False
996.035	0.0	1Suff w/o Lat.	12	996035	decorate	1.0	0.0	False
997.452	0.0	0Suff w/o Lat.	2	997452	order	1.0	0.0	False
998.394	0.0	2Suff RealStemNW	25	998394	affirmatfully	0.0	0.0	True
999.386	0.0	2Suff w/o Lat.	22	999386	timeliness	1.0	n/a	False
1001.786	0.0	1Suff PseudoStemNW	14	1001786	uteless	0.0	1.0	False
1003.045	0.0	0Suff NW	4	1003045	rerard	0.0	1.0	False
1004.437	0.0	2Suff RealStemNW	25	1004437	decisishness	0.0	1.0	False
1006.571	0.0	2Suff RealStemNW	25	1006571	decorural	0.0	1.0	False
1007.855	0.0	0Suff NW	4	1007855	bant	0.0	1.0	False
1009.389	0.0	0Suff w/o Lat.	2	1009389	define	1.0	0.0	False
1011.231	0.0	2Suff PseudoStemNW	24	1011231	inshemmation	0.0	n/a	False
1013.623	0.0	2Suff RealStemNW	25	1013623	ailistic	0.0	1.0	False
1014.807	0.0	0Suff NW	4	1014807	appigent	0.0	1.0	False
1017.05	0.0	2Suff w/o Lat.	22	1017050	childishly	1.0	n/a	False
1019.45	0.0	0Suff w/ Lat.	1	1019450	progress	1.0	0.0	False
1020.551	0.0	2Suff w/o Lat.	22	1020551	partially	1.0	0.0	False
1021.643	0.0	0Suff NW	4	1021643	perburve	0.0	0.0	True
1022.968	0.0	0Suff NW	4	1022968	itcress	0.0	1.0	False
1024.043	0.0	2Suff w/o Lat.	22	1024043	uselessness	1.0	n/a	False
1026.444	0.0	0Suff w/o Lat.	2	1026444	family	1.0	0.0	False
1027.544	0.0	1Suff PseudoStemNW	14	1027544	hodeful	0.0	1.0	False
1028.786	0.0	0Suff NW	4	1028786	frala	0.0	1.0	False
1030.037	0.0	1Suff PseudoStemNW	14	1030037	aisless	0.0	n/a	False
1032.438	0.0	0Suff w/o Lat.	2	1032438	harm	1.0	0.0	False
1051.235	0.0	2Suff w/o Lat.	22	1051235	realistic	1.0	0.0	False
1052.252	0.0	1Suff PseudoStemNW	14	1052252	awdition	0.0	1.0	False
1053.302	0.0	2Suff PseudoStemNW	24	1053302	onnensively	0.0	1.0	False
1054.444	0.0	2Suff PseudoStemNW	24	1054444	falumfilly	0.0	1.0	False
1055.545	0.0	2Suff w/o Lat.	22	1055545	painfully	1.0	0.0	False
1056.545	0.0	1Suff w/o Lat.	12	1056545	orderly	1.0	0.0	False
1057.704	0.0	0Suff w/o Lat.	2	1057704	hero	1.0	0.0	False
1058.637	0.0	0Suff w/ Lat.	1	1058637	avail	1.0	0.0	False
1059.788	0.0	0Suff NW	4	1059788	eet	0.0	1.0	False
1060.888	0.0	0Suff w/o Lat.	2	1060888	assassin	1.0	0.0	False
1061.88	0.0	2Suff PseudoStemNW	24	1061880	gramiously	0.0	1.0	False
1063.089	0.0	2Suff Composite	23	1063089	perturbation	1.0	0.0	False
1064.989	0.0	0Suff NW	4	1064989	paft	0.0	1.0	False
1066.29	0.0	1Suff w/o Lat.	12	1066290	direction	1.0	0.0	False
1067.44	0.0	0Suff NW	4	1067440	halk	0.0	1.0	False
1069.441	0.0	2Suff PseudoStemNW	24	1069441	uspasionally	0.0	1.0	False
1070.999	0.0	0Suff NW	4	1070999	pask	0.0	1.0	False
1072.683	0.0	2Suff w/o Lat.	22	1072683	substantially	1.0	0.0	False
1073.992	0.0	0Suff w/o Lat.	2	1073992	success	1.0	0.0	False
1075.076	0.0	2Suff RealStemNW	25	1075076	seasonical	0.0	1.0	False
1076.509	0.0	2Suff Composite	23	1076509	mechanistic	1.0	1.0	True
1077.81	0.0	0Suff w/o Lat.	2	1077810	magnet	1.0	0.0	False
1078.877	0.0	0Suff w/o Lat.	2	1078877	relate	1.0	0.0	False
1079.877	0.0	2Suff RealStemNW	25	1079877	isolatliness	0.0	1.0	False
1080.978	0.0	2Suff w/o Lat.	22	1080978	idealistic	1.0	0.0	False
1082.061	0.0	2Suff PseudoStemNW	24	1082061	miccessfully	0.0	1.0	False
1083.245	0.0	2Suff PseudoStemNW	24	1083245	chotintically	0.0	1.0	False
1084.412	0.0	1Suff w/o Lat.	12	1084412	restless	1.0	0.0	False
1085.462	0.0	2Suff Composite	23	1085462	commutation	1.0	0.0	False
1087.213	0.0	1Suff RealStemNW	15	1087213	impressate	0.0	1.0	False
1089.088	0.0	2Suff w/o Lat.	22	1089088	thoughtlessly	1.0	0.0	False
1090.797	0.0	0Suff NW	4	1090797	coul	0.0	1.0	False
1092.131	0.0	1Suff w/o Lat.	12	1092131	useless	1.0	0.0	False
1093.256	0.0	0Suff NW	4	1093256	distawks	0.0	1.0	False
1094.665	0.0	2Suff w/o Lat.	22	1094665	hopelessness	1.0	0.0	False
1095.682	0.0	0Suff NW	4	1095682	girern	0.0	1.0	False
1096.741	0.0	0Suff NW	4	1096741	urmer	0.0	1.0	False
1097.799	0.0	2Suff PseudoStemNW	24	1097799	stitilization	0.0	1.0	False
1099.116	0.0	2Suff PseudoStemNW	24	1099116	segnonistic	0.0	1.0	False
1100.267	0.0	1Suff w/o Lat.	12	1100267	outward	1.0	0.0	False
1101.5	0.0	0Suff NW	4	1101500	avold	0.0	1.0	False
1102.843	0.0	1Suff w/o Lat.	12	1102843	racial	1.0	0.0	False
1104.96	0.0	1Suff w/o Lat.	12	1104960	thoughtless	1.0	0.0	False
1106.844	0.0	1Suff w/o Lat.	12	1106844	notify	1.0	0.0	False
1107.794	0.0	0Suff w/o Lat.	2	1107794	exhaust	1.0	0.0	False
1108.719	0.0	2Suff w/o Lat.	22	1108719	originality	1.0	0.0	False
1109.82	0.0	2Suff w/o Lat.	22	1109820	isolationism	1.0	0.0	False
1111.045	0.0	2Suff w/o Lat.	22	1111045	cheerfulness	1.0	0.0	False
1113.171	0.0	0Suff NW	4	1113171	thiend	0.0	n/a	False
1115.571	0.0	1Suff w/o Lat.	12	1115571	fatal	1.0	0.0	False
1116.613	0.0	0Suff w/o Lat.	2	1116613	moist	1.0	0.0	False
1117.805	0.0	2Suff PseudoStemNW	24	1117805	thackener	0.0	1.0	False
1119.223	0.0	1Suff w/o Lat.	12	1119223	nervous	1.0	0.0	False
1121.223	0.0	1Suff w/o Lat.	12	1121223	isolation	1.0	0.0	False
1122.707	0.0	1Suff PseudoStemNW	14	1122707	wrotify	0.0	n/a	False
1125.099	0.0	1Suff w/ Lat.	11	1125099	persistent	1.0	0.0	False
1126.458	0.0	0Suff w/o Lat.	2	1126458	health	1.0	0.0	False
1127.767	0.0	2Suff w/o Lat.	22	1127767	decisiveness	1.0	0.0	False
1129.001	0.0	1Suff RealStemNW	15	1129001	hopeable	0.0	1.0	False
1130.526	0.0	2Suff RealStemNW	25	1130526	agreeally	0.0	0.0	True
1131.576	0.0	1Suff w/o Lat.	12	1131576	adaptable	1.0	1.0	True
1132.86	0.0	1Suff PseudoStemNW	14	1132860	fralatize	0.0	1.0	False
1135.152	0.0	0Suff w/o Lat.	2	1135152	glee	1.0	0.0	False
1136.495	0.0	1Suff w/o Lat.	12	1136495	accidental	1.0	0.0	False
1137.862	0.0	2Suff RealStemNW	25	1137862	persistalism	0.0	1.0	False
1139.646	0.0	1Suff w/o Lat.	12	1139646	sterilize	1.0	0.0	False
1140.679	0.0	0Suff NW	4	1140679	detisms	0.0	1.0	False
1141.821	0.0	2Suff w/o Lat.	22	1141821	differentiate	1.0	0.0	False
1143.397	0.0	2Suff RealStemNW	25	1143397	exhaustfully	0.0	n/a	False
1145.789	0.0	2Suff RealStemNW	25	1145789	raceical	0.0	1.0	False
1146.973	0.0	2Suff RealStemNW	25	1146973	guiltioner	0.0	n/a	False
1149.374	0.0	1Suff w/o Lat.	12	1149374	realist	1.0	n/a	False
1151.783	0.0	2Suff RealStemNW	25	1151783	immunability	0.0	0.0	True
1153.316	0.0	2Suff w/o Lat.	22	1153316	partiality	1.0	0.0	False
1154.408	0.0	1Suff w/o Lat.	12	1154408	editor	1.0	n/a	False
1156.817	0.0	0Suff w/o Lat.	2	1156817	base	1.0	0.0	False
1158.651	0.0	2Suff w/o Lat.	22	1158651	transitional	1.0	0.0	False
1160.76	0.0	2Suff w/o Lat.	22	1160760	intensively	1.0	0.0	False
1162.002	0.0	0Suff w/o Lat.	2	1162002	thought	1.0	0.0	False
1163.069	0.0	2Suff w/o Lat.	22	1163069	gracefully	1.0	0.0	False
1164.503	0.0	0Suff NW	4	1164503	eltene	0.0	1.0	False
1165.77	0.0	2Suff w/ Lat.	21	1165770	subjectively	1.0	0.0	False
1166.762	0.0	2Suff Composite	23	1166762	autistic	1.0	0.0	False
1167.829	0.0	1Suff w/o Lat.	12	1167829	childish	1.0	0.0	False
1168.671	0.0	1Suff w/o Lat.	12	1168671	execution	1.0	0.0	False
1169.688	0.0	0Suff w/ Lat.	1	1169688	predict	1.0	0.0	False
1170.522	0.0	0Suff NW	4	1170522	concuch	0.0	1.0	False
1171.83	0.0	2Suff RealStemNW	25	1171830	leadantate	0.0	n/a	False
1174.24	0.0	0Suff NW	4	1174240	chird	0.0	1.0	False
1175.415	0.0	2Suff w/o Lat.	22	1175415	periodical	1.0	0.0	False
1176.774	0.0	0Suff w/ Lat.	1	1176774	project	1.0	0.0	False
1177.707	0.0	0Suff NW	4	1177707	devesug	0.0	0.0	True
1178.708	0.0	2Suff RealStemNW	25	1178708	painively	0.0	1.0	False
1180.325	0.0	1Suff w/o Lat.	12	1180325	idealist	1.0	0.0	False
1181.508	0.0	0Suff w/o Lat.	2	1181508	believe	1.0	0.0	False
1182.875	0.0	2Suff PseudoStemNW	24	1182875	lenctionally	0.0	1.0	False
1185.243	0.0	0Suff w/o Lat.	2	1185243	substance	1.0	0.0	False
1187.519	0.0	1Suff RealStemNW	15	1187519	poetal	0.0	1.0	False
1189.119	0.0	0Suff NW	4	1189119	artlitack	0.0	1.0	False
1190.353	0.0	2Suff RealStemNW	25	1190353	governancial	0.0	n/a	False
1192.754	0.0	2Suff Composite	23	1192754	inflammation	1.0	0.0	False
1194.537	0.0	1Suff w/o Lat.	12	1194537	ceremonial	1.0	0.0	False
1195.554	0.0	1Suff RealStemNW	15	1195554	gleeive	0.0	1.0	False
1196.871	0.0	0Suff NW	4	1196871	tipe	0.0	n/a	False
1199.272	0.0	0Suff w/o Lat.	2	1199272	trivia	1.0	0.0	False
1200.814	0.0	1Suff PseudoStemNW	14	1200814	tipely	0.0	n/a	False
1203.223	0.0	1Suff RealStemNW	15	1203223	useive	0.0	1.0	False
1204.607	0.0	2Suff RealStemNW	25	1204607	editerize	0.0	1.0	False
1205.783	0.0	2Suff RealStemNW	25	1205783	educatality	0.0	0.0	True
1207.341	0.0	0Suff w/o Lat.	2	1207341	period	1.0	n/a	False
1209.742	0.0	1Suff w/o Lat.	12	1209742	thoughtful	1.0	0.0	False
1210.926	0.0	1Suff w/o Lat.	12	1210926	easy	1.0	n/a	False
1213.335	0.0	0Suff w/o Lat.	2	1213335	govern	1.0	0.0	False
1214.435	0.0	1Suff w/o Lat.	12	1214435	friendly	1.0	0.0	False
1215.327	0.0	1Suff w/o Lat.	12	1215327	painless	1.0	0.0	False
1216.194	0.0	0Suff w/o Lat.	2	1216194	aim	1.0	0.0	False
1216.994	0.0	0Suff NW	4	1216994	nole	0.0	0.0	True
1217.77	0.0	0Suff NW	4	1217770	hyth	0.0	1.0	False
1218.862	0.0	2Suff w/o Lat.	22	1218862	relatively	1.0	0.0	False
1239.493	0.0	2Suff w/o Lat.	22	1239493	ceremonially	1.0	0.0	False
1240.593	0.0	1Suff w/ Lat.	11	1240593	projection	1.0	0.0	False
1241.635	0.0	0Suff NW	4	1241635	fale	0.0	0.0	True
1242.619	0.0	1Suff RealStemNW	15	1242619	eany	0.0	1.0	False
1243.736	0.0	2Suff PseudoStemNW	24	1243736	devesugmental	0.0	1.0	False
1244.795	0.0	1Suff PseudoStemNW	14	1244795	nolable	0.0	0.0	True
1245.953	0.0	2Suff w/o Lat.	22	1245953	definitely	1.0	0.0	False
1247.037	0.0	0Suff NW	4	1247037	helily	0.0	1.0	False
1248.287	0.0	0Suff NW	4	1248287	faulm	0.0	1.0	False
1249.529	0.0	0Suff w/o Lat.	2	1249529	provoke	1.0	n/a	False
1251.922	0.0	1Suff RealStemNW	15	1251922	wakeive	0.0	n/a	False
1254.322	0.0	1Suff RealStemNW	15	1254322	magnetal	0.0	1.0	False
1255.831	0.0	1Suff PseudoStemNW	14	1255831	mowthure	0.0	1.0	False
1257.715	0.0	2Suff RealStemNW	25	1257715	quotfully	0.0	1.0	False
1259.324	0.0	2Suff w/o Lat.	22	1259324	delightfully	1.0	0.0	False
1260.383	0.0	1Suff PseudoStemNW	14	1260383	imoatist	0.0	1.0	False
1261.5	0.0	0Suff w/o Lat.	2	1261500	architect	1.0	0.0	False
1262.792	0.0	1Suff RealStemNW	15	1262792	competitful	0.0	1.0	False
1264.251	0.0	1Suff w/o Lat.	12	1264251	seasonal	1.0	0.0	False
1265.709	0.0	1Suff PseudoStemNW	14	1265709	sorken	0.0	1.0	False
1266.901	0.0	2Suff PseudoStemNW	24	1266901	thashfulness	0.0	1.0	False
1268.443	0.0	1Suff w/ Lat.	11	1268443	conceptual	1.0	0.0	False
1270.536	0.0	1Suff PseudoStemNW	14	1270536	halkless	0.0	1.0	False
1271.578	0.0	0Suff NW	4	1271578	pipsist	0.0	1.0	False
1272.77	0.0	2Suff w/o Lat.	22	1272770	poetical	1.0	0.0	False
1274.729	0.0	0Suff NW	4	1274729	chotintic	0.0	1.0	False
1276.113	0.0	1Suff w/o Lat.	12	1276113	heroic	1.0	0.0	False
1277.438	0.0	0Suff w/o Lat.	2	1277438	thank	1.0	0.0	False
1279.155	0.0	2Suff w/o Lat.	22	1279155	harmlessly	1.0	0.0	False
1280.122	0.0	2Suff PseudoStemNW	24	1280122	degorative	0.0	0.0	True
1281.598	0.0	1Suff RealStemNW	15	1281598	deadic	0.0	1.0	False
1283.315	0.0	2Suff PseudoStemNW	24	1283315	nerbously	0.0	1.0	False
1285.449	0.0	2Suff PseudoStemNW	24	1285449	pinonical	0.0	1.0	False
1286.449	0.0	2Suff PseudoStemNW	24	1286449	priueurantly	0.0	1.0	False
1287.424	0.0	2Suff w/o Lat.	22	1287424	additional	1.0	0.0	False
1288.783	0.0	0Suff NW	4	1288783	etil	0.0	1.0	False
1289.967	0.0	2Suff RealStemNW	25	1289967	idealional	0.0	1.0	False
1291.284	0.0	1Suff PseudoStemNW	14	1291284	fralatic	0.0	1.0	False
1292.334	0.0	2Suff w/o Lat.	22	1292334	softener	1.0	0.0	False
1293.843	0.0	1Suff w/o Lat.	12	1293843	glorious	1.0	0.0	False
1295.243	0.0	2Suff PseudoStemNW	24	1295243	snoughtfully	0.0	1.0	False
1296.377	0.0	1Suff w/o Lat.	12	1296377	development	1.0	0.0	False
1297.436	0.0	2Suff PseudoStemNW	24	1297436	hodelessness	0.0	1.0	False
1298.936	0.0	1Suff RealStemNW	15	1298936	conceptuic	0.0	0.0	True
1300.103	0.0	2Suff PseudoStemNW	24	1300103	rerational	0.0	1.0	False
1301.52	0.0	2Suff w/o Lat.	22	1301520	familiarity	1.0	n/a	False
1303.921	0.0	2Suff PseudoStemNW	24	1303921	desalkation	0.0	1.0	False
1305.105	0.0	2Suff RealStemNW	25	1305105	peaceively	0.0	0.0	True
1306.238	0.0	1Suff RealStemNW	15	1306238	idealate	0.0	n/a	False
1308.623	0.0	1Suff w/o Lat.	12	1308623	exhaustive	1.0	n/a	False
1311.032	0.0	1Suff PseudoStemNW	14	1311032	nolify	0.0	1.0	False
1313.074	0.0	1Suff PseudoStemNW	14	1313074	prodfessive	0.0	1.0	False
1314.349	0.0	0Suff NW	4	1314349	musual	0.0	1.0	False
1315.891	0.0	1Suff PseudoStemNW	14	1315891	snoughtless	0.0	n/a	False
1318.292	0.0	2Suff w/o Lat.	22	1318292	seasonally	1.0	0.0	False
1319.493	0.0	2Suff w/o Lat.	22	1319493	easily	1.0	0.0	False
1320.459	0.0	2Suff PseudoStemNW	24	1320459	prebitably	0.0	1.0	False
1322.443	0.0	1Suff w/o Lat.	12	1322443	validate	1.0	n/a	False
1324.836	0.0	1Suff w/o Lat.	12	1324836	addition	1.0	0.0	False
1327.037	0.0	0Suff w/ Lat.	1	1327037	affect	1.0	0.0	False
1328.028	0.0	1Suff RealStemNW	15	1328028	basly	0.0	0.0	True
1329.462	0.0	2Suff Composite	23	1329462	dramatization	1.0	n/a	False
1331.863	0.0	1Suff w/o Lat.	12	1331863	assassinate	1.0	n/a	False
1334.255	0.0	1Suff w/o Lat.	12	1334255	director	1.0	0.0	False
1335.214	0.0	0Suff NW	4	1335214	manhet	0.0	1.0	False
1336.364	0.0	2Suff RealStemNW	25	1336364	revitalilessly	0.0	1.0	False
1338.44	0.0	2Suff RealStemNW	25	1338440	restiousness	0.0	n/a	False
1340.841	0.0	0Suff NW	4	1340841	stoteld	0.0	n/a	False
1343.241	0.0	2Suff w/ Lat.	21	1343241	progressively	1.0	n/a	False
1345.651	0.0	1Suff RealStemNW	15	1345651	instructate	0.0	1.0	False
1347.885	0.0	0Suff w/o Lat.	2	1347885	logic	1.0	0.0	False
1348.943	0.0	1Suff w/o Lat.	12	1348943	successful	1.0	0.0	False
1350.069	0.0	2Suff w/o Lat.	22	1350069	originator	1.0	0.0	False
1352.386	0.0	1Suff w/o Lat.	12	1352386	definite	1.0	n/a	False
1354.778	0.0	2Suff PseudoStemNW	24	1354778	gloofully	0.0	1.0	False
1356.321	0.0	0Suff w/o Lat.	2	1356321	real	1.0	n/a	False
1358.713	0.0	0Suff w/o Lat.	2	1358713	valid	1.0	n/a	False
1361.122	0.0	1Suff RealStemNW	15	1361122	agreeless	0.0	n/a	False
1363.523	0.0	0Suff w/o Lat.	2	1363523	worth	1.0	n/a	False
1365.923	0.0	0Suff w/o Lat.	2	1365923	transit	1.0	n/a	False
1368.316	0.0	2Suff w/o Lat.	22	1368316	competitively	1.0	n/a	False
1370.717	0.0	2Suff w/o Lat.	22	1370717	familiarize	1.0	0.0	False
1371.809	0.0	0Suff NW	4	1371809	exufant	0.0	1.0	False
1372.909	0.0	2Suff RealStemNW	25	1372909	familiately	0.0	1.0	False
1374.051	0.0	1Suff PseudoStemNW	14	1374051	farsen	0.0	1.0	False
1375.118	0.0	1Suff w/o Lat.	12	1375118	profitable	1.0	0.0	False
1376.152	0.0	2Suff PseudoStemNW	24	1376152	adstification	0.0	1.0	False
1377.302	0.0	2Suff RealStemNW	25	1377302	dramatilessly	0.0	1.0	False
1378.802	0.0	2Suff RealStemNW	25	1378802	manionist	0.0	1.0	False
1379.819	0.0	2Suff w/o Lat.	22	1379819	statistically	1.0	0.0	False
1381.095	0.0	1Suff RealStemNW	15	1381095	designion	0.0	1.0	False
1382.604	0.0	2Suff PseudoStemNW	24	1382604	falality	0.0	1.0	False
1384.287	0.0	0Suff w/o Lat.	2	1384287	develop	1.0	0.0	False
1385.321	0.0	2Suff Composite	23	1385321	futuristic	1.0	0.0	False
1386.58	0.0	1Suff PseudoStemNW	14	1386580	preguctable	0.0	1.0	False
1387.713	0.0	2Suff PseudoStemNW	24	1387713	diructorship	0.0	1.0	False
1388.856	0.0	0Suff w/o Lat.	2	1388856	stealth	1.0	1.0	True
1389.831	0.0	1Suff PseudoStemNW	14	1389831	reration	0.0	1.0	False
1390.898	0.0	1Suff w/o Lat.	12	1390898	protection	1.0	1.0	True
1392.407	0.0	2Suff w/o Lat.	22	1392407	dramatically	1.0	0.0	False
1393.432	0.0	1Suff w/o Lat.	12	1393432	healthy	1.0	0.0	False
1394.541	0.0	1Suff RealStemNW	15	1394541	restable	0.0	0.0	True
1396.391	0.0	2Suff PseudoStemNW	24	1396391	tipeliness	0.0	1.0	False
1397.425	0.0	2Suff PseudoStemNW	24	1397425	stoteldionist	0.0	1.0	False
1398.508	0.0	2Suff RealStemNW	25	1398508	categorally	0.0	0.0	True
1399.567	0.0	1Suff PseudoStemNW	14	1399567	wrotious	0.0	1.0	False
1400.692	0.0	2Suff PseudoStemNW	24	1400692	deabonably	0.0	1.0	False
1401.985	0.0	1Suff w/o Lat.	12	1401985	materialist	1.0	0.0	False
1403.502	0.0	0Suff w/o Lat.	2	1403502	delight	1.0	0.0	False
