onset	duration	trial_type	value	sample	stimulus	is_word	response	correct
78.851	0.0	1Suff w/o Lat.	12	78851	assassinate	1.0	0.0	False
79.935	0.0	1Suff RealStemNW	15	79935	considerion	0.0	0.0	True
81.01	0.0	2Suff RealStemNW	25	81010	exhaustfully	0.0	1.0	False
82.377	0.0	2Suff w/o Lat.	22	82377	musically	1.0	0.0	False
83.428	0.0	1Suff w/o Lat.	12	83428	provocative	1.0	0.0	False
84.753	0.0	2Suff w/o Lat.	22	84753	hopelessness	1.0	0.0	False
86.062	0.0	1Suff w/o Lat.	12	86062	musical	1.0	0.0	False
87.129	0.0	2Suff w/o Lat.	22	87129	competitively	1.0	0.0	False
88.454	0.0	1Suff RealStemNW	15	88454	financeic	0.0	1.0	False
89.963	0.0	2Suff RealStemNW	25	89963	subjectfully	0.0	0.0	True
91.589	0.0	0Suff w/o Lat.	2	91589	regret	1.0	0.0	False
92.639	0.0	2Suff PseudoStemNW	24	92639	gramiously	0.0	0.0	True
94.306	0.0	2Suff PseudoStemNW	24	94306	peadership	0.0	1.0	False
95.79	0.0	0Suff NW	4	95790	exufant	0.0	1.0	False
97.407	0.0	2Suff w/o Lat.	22	97407	ceremonially	1.0	0.0	False
99.258	0.0	1Suff w/o Lat.	12	99258	definite	1.0	1.0	True
100.725	0.0	0Suff w/o Lat.	2	100725	exhaust	1.0	0.0	False
101.825	0.0	1Suff PseudoStemNW	14	101825	grameful	0.0	1.0	False
103.25	0.0	2Suff RealStemNW	25	103250	notifilessly	0.0	1.0	False
104.709	0.0	0Suff w/o Lat.	2	104709	note	1.0	0.0	False
105.66	0.0	0Suff w/o Lat.	2	105660	base	1.0	0.0	False
106.802	0.0	2Suff Composite	23	106802	canonical	1.0	1.0	True
108.652	0.0	1Suff PseudoStemNW	14	108652	priueurant	0.0	1.0	False
110.478	0.0	0Suff w/o Lat.	2	110478	period	1.0	0.0	False
111.561	0.0	0Suff w/o Lat.	2	111561	decor	1.0	0.0	False
112.745	0.0	0Suff w/o Lat.	2	112745	sleep	1.0	0.0	False
113.712	0.0	1Suff w/o Lat.	12	113712	ceremonial	1.0	0.0	False
115.037	0.0	1Suff RealStemNW	15	115037	relatful	0.0	0.0	True
116.404	0.0	2Suff w/o Lat.	22	116404	familiarity	1.0	0.0	False
117.863	0.0	1Suff PseudoStemNW	14	117863	chansotion	0.0	1.0	False
119.189	0.0	0Suff w/o Lat.	2	119189	speed	1.0	0.0	False
120.272	0.0	0Suff w/o Lat.	2	120272	friend	1.0	0.0	False
121.298	0.0	2Suff w/o Lat.	22	121298	sleepily	1.0	0.0	False
122.423	0.0	1Suff RealStemNW	15	122423	directar	0.0	1.0	False
124.182	0.0	2Suff w/o Lat.	22	124182	accidentally	1.0	0.0	False
125.791	0.0	2Suff w/o Lat.	22	125791	statistically	1.0	0.0	False
127.25	0.0	2Suff RealStemNW	25	127250	leadantate	0.0	1.0	False
129.2	0.0	1Suff PseudoStemNW	14	129200	mowthure	0.0	1.0	False
131.159	0.0	1Suff w/o Lat.	12	131159	editor	1.0	0.0	False
132.368	0.0	1Suff PseudoStemNW	14	132368	etilor	0.0	1.0	False
133.71	0.0	2Suff RealStemNW	25	133710	isolatmental	0.0	1.0	False
135.927	0.0	1Suff w/o Lat.	12	135927	designate	1.0	0.0	False
137.186	0.0	0Suff NW	4	137186	bant	0.0	1.0	False
138.578	0.0	0Suff w/o Lat.	2	138578	accident	1.0	0.0	False
139.728	0.0	2Suff Composite	23	139728	autistic	1.0	n/a	False
142.137	0.0	0Suff NW	4	142137	preguct	0.0	1.0	False
143.588	0.0	1Suff RealStemNW	15	143588	painable	0.0	n/a	False
145.997	0.0	2Suff w/ Lat.	21	145997	mistakenly	1.0	0.0	False
147.206	0.0	2Suff w/o Lat.	22	147206	originally	1.0	0.0	False
148.281	0.0	1Suff RealStemNW	15	148281	forgetive	0.0	0.0	True
149.881	0.0	2Suff Composite	23	149881	utilization	1.0	0.0	False
151.249	0.0	1Suff RealStemNW	15	151249	educatate	0.0	1.0	False
153.291	0.0	0Suff w/o Lat.	2	153291	globe	1.0	0.0	False
154.566	0.0	1Suff RealStemNW	15	154566	designion	0.0	1.0	False
156.575	0.0	1Suff w/o Lat.	12	156575	successful	1.0	0.0	False
157.834	0.0	1Suff w/o Lat.	12	157834	fasten	1.0	1.0	True
159.168	0.0	1Suff w/o Lat.	12	159168	stealthy	1.0	0.0	False
160.568	0.0	2Suff w/o Lat.	22	160568	graciously	1.0	0.0	False
161.894	0.0	0Suff NW	4	161894	artlitack	0.0	1.0	False
163.252	0.0	2Suff PseudoStemNW	24	163252	thackener	0.0	1.0	False
165.019	0.0	2Suff PseudoStemNW	24	165019	steadthily	0.0	n/a	False
167.429	0.0	1Suff PseudoStemNW	14	167429	rumical	0.0	0.0	True
168.529	0.0	2Suff RealStemNW	25	168529	periodally	0.0	0.0	True
169.829	0.0	0Suff w/o Lat.	2	169829	substance	1.0	0.0	False
171.446	0.0	2Suff RealStemNW	25	171446	forgetiveness	0.0	0.0	True
173.155	0.0	0Suff NW	4	173155	prowert	0.0	1.0	False
174.422	0.0	1Suff PseudoStemNW	14	174422	eetward	0.0	1.0	False
175.973	0.0	1Suff w/o Lat.	12	175973	painless	1.0	0.0	False
177.182	0.0	1Suff w/o Lat.	12	177182	aimless	1.0	0.0	False
178.274	0.0	2Suff w/o Lat.	22	178274	definitive	1.0	0.0	False
179.549	0.0	0Suff w/o Lat.	2	179549	rhythm	1.0	1.0	True
180.583	0.0	1Suff w/o Lat.	12	180583	functional	1.0	0.0	False
181.675	0.0	1Suff w/o Lat.	12	181675	regrettable	1.0	0.0	False
183.175	0.0	0Suff w/o Lat.	2	183175	occasion	1.0	0.0	False
184.559	0.0	0Suff w/o Lat.	2	184559	fright	1.0	0.0	False
185.784	0.0	1Suff PseudoStemNW	14	185784	lenctional	0.0	1.0	False
187.085	0.0	2Suff PseudoStemNW	24	187085	snightfully	0.0	1.0	False
188.593	0.0	2Suff w/o Lat.	22	188593	fatally	1.0	0.0	False
189.735	0.0	0Suff w/o Lat.	2	189735	guilt	1.0	0.0	False
190.827	0.0	2Suff RealStemNW	25	190827	fasticly	0.0	1.0	False
192.286	0.0	2Suff w/o Lat.	22	192286	ritualistic	1.0	0.0	False
193.953	0.0	2Suff PseudoStemNW	24	193953	degorative	0.0	0.0	True
195.504	0.0	0Suff w/o Lat.	2	195504	adapt	1.0	0.0	False
196.788	0.0	2Suff PseudoStemNW	24	196788	rhylphically	0.0	1.0	False
197.93	0.0	2Suff PseudoStemNW	24	197930	carbisalistic	0.0	1.0	False
199.23	0.0	2Suff PseudoStemNW	24	199230	imoatization	0.0	0.0	True
200.38	0.0	1Suff w/o Lat.	12	200380	faithful	1.0	0.0	False
201.422	0.0	0Suff NW	4	201422	faulm	0.0	1.0	False
202.573	0.0	2Suff PseudoStemNW	24	202573	ewsibally	0.0	1.0	False
203.756	0.0	2Suff PseudoStemNW	24	203756	utefully	0.0	1.0	False
205.023	0.0	2Suff w/o Lat.	22	205023	occasionally	1.0	0.0	False
206.049	0.0	2Suff RealStemNW	25	206049	guiltioner	0.0	1.0	False
207.558	0.0	0Suff NW	4	207558	pote	0.0	0.0	True
208.566	0.0	2Suff Composite	23	208566	organization	1.0	0.0	False
209.983	0.0	2Suff w/o Lat.	22	209983	substantially	1.0	0.0	False
211.542	0.0	1Suff PseudoStemNW	14	211542	steadthy	0.0	0.0	True
213.243	0.0	2Suff w/o Lat.	22	213243	editorial	1.0	0.0	False
214.776	0.0	1Suff w/o Lat.	12	214776	useful	1.0	0.0	False
215.76	0.0	2Suff RealStemNW	25	215760	familierage	0.0	1.0	False
217.277	0.0	0Suff NW	4	217277	chotintic	0.0	1.0	False
218.711	0.0	2Suff RealStemNW	25	218711	educatality	0.0	1.0	False
220.528	0.0	1Suff w/o Lat.	12	220528	deadly	1.0	0.0	False
221.529	0.0	2Suff w/o Lat.	22	221529	moisturize	1.0	0.0	False
222.854	0.0	2Suff PseudoStemNW	24	222854	paftially	0.0	1.0	False
224.346	0.0	1Suff w/o Lat.	12	224346	healthy	1.0	0.0	False
225.363	0.0	0Suff w/o Lat.	2	225363	real	1.0	0.0	False
226.322	0.0	1Suff w/o Lat.	12	226322	education	1.0	0.0	False
227.355	0.0	2Suff w/ Lat.	21	227355	projectionist	1.0	1.0	True
229.039	0.0	0Suff NW	4	229039	eshaums	0.0	1.0	False
230.465	0.0	1Suff RealStemNW	15	230465	sterilist	0.0	0.0	True
231.74	0.0	2Suff w/o Lat.	22	231740	believably	1.0	0.0	False
233.432	0.0	2Suff w/o Lat.	22	233432	decisively	1.0	0.0	False
234.891	0.0	0Suff w/o Lat.	2	234891	drama	1.0	0.0	False
235.941	0.0	1Suff w/ Lat.	11	235941	impression	1.0	0.0	False
237.283	0.0	0Suff NW	4	237283	stoteld	0.0	1.0	False
238.609	0.0	1Suff RealStemNW	15	238609	differify	0.0	1.0	False
240.109	0.0	1Suff w/ Lat.	11	240109	available	1.0	0.0	False
241.235	0.0	1Suff RealStemNW	15	241235	soulive	0.0	1.0	False
242.51	0.0	1Suff RealStemNW	15	242510	intensful	0.0	0.0	True
255.514	0.0	2Suff w/o Lat.	22	255514	timeliness	1.0	0.0	False
257.048	0.0	1Suff PseudoStemNW	14	257048	fleedy	0.0	1.0	False
258.348	0.0	0Suff w/o Lat.	2	258348	hope	1.0	0.0	False
259.257	0.0	2Suff w/o Lat.	22	259257	awfulness	1.0	0.0	False
260.391	0.0	1Suff RealStemNW	15	260391	assassinion	0.0	0.0	True
261.766	0.0	1Suff w/o Lat.	12	261766	confession	1.0	0.0	False
263.066	0.0	1Suff RealStemNW	15	263066	successate	0.0	0.0	True
264.625	0.0	1Suff RealStemNW	15	264625	hopeable	0.0	0.0	True
266.267	0.0	0Suff NW	4	266267	reut	0.0	1.0	False
267.434	0.0	1Suff PseudoStemNW	14	267434	concolerable	0.0	1.0	False
269.243	0.0	0Suff NW	4	269243	restit	0.0	1.0	False
271.211	0.0	0Suff w/o Lat.	2	271211	decide	1.0	0.0	False
272.219	0.0	1Suff PseudoStemNW	14	272219	affallion	0.0	1.0	False
273.578	0.0	2Suff PseudoStemNW	24	273578	potarity	0.0	1.0	False
275.112	0.0	0Suff NW	4	275112	manhet	0.0	0.0	True
276.37	0.0	2Suff w/o Lat.	22	276370	gleefully	1.0	1.0	True
277.913	0.0	1Suff w/ Lat.	11	277913	persistent	1.0	0.0	False
279.23	0.0	0Suff w/ Lat.	1	279230	impress	1.0	0.0	False
280.297	0.0	1Suff w/o Lat.	12	280297	idealize	1.0	0.0	False
281.347	0.0	1Suff w/o Lat.	12	281347	profitable	1.0	0.0	False
282.764	0.0	2Suff PseudoStemNW	24	282764	snoughtlessly	0.0	1.0	False
283.981	0.0	1Suff PseudoStemNW	14	283981	diruction	0.0	0.0	True
286.199	0.0	2Suff Composite	23	286199	confederation	1.0	0.0	False
288.082	0.0	0Suff w/o Lat.	2	288082	guard	1.0	0.0	False
289.383	0.0	2Suff PseudoStemNW	24	289383	artlitackural	0.0	0.0	True
291.267	0.0	2Suff PseudoStemNW	24	291267	tutiously	0.0	1.0	False
292.684	0.0	0Suff NW	4	292684	diruce	0.0	1.0	False
293.976	0.0	1Suff w/o Lat.	12	293976	director	1.0	0.0	False
295.018	0.0	1Suff PseudoStemNW	14	295018	orifadate	0.0	1.0	False
296.36	0.0	2Suff RealStemNW	25	296360	relateness	0.0	0.0	True
297.735	0.0	2Suff PseudoStemNW	24	297735	orifadator	0.0	1.0	False
299.278	0.0	0Suff w/o Lat.	2	299278	family	1.0	0.0	False
300.32	0.0	2Suff w/o Lat.	22	300320	painfully	1.0	0.0	False
301.412	0.0	2Suff PseudoStemNW	24	301412	adstification	0.0	1.0	False
303.012	0.0	2Suff w/o Lat.	22	303012	painlessly	1.0	0.0	False
304.187	0.0	0Suff w/o Lat.	2	304187	season	1.0	0.0	False
305.705	0.0	1Suff PseudoStemNW	14	305705	uteless	0.0	1.0	False
306.997	0.0	0Suff NW	4	306997	stitile	0.0	1.0	False
308.455	0.0	2Suff w/o Lat.	22	308455	friendliness	1.0	0.0	False
309.572	0.0	2Suff RealStemNW	25	309572	fatalize	0.0	1.0	False
311.606	0.0	2Suff PseudoStemNW	24	311606	vimidation	0.0	1.0	False
313.499	0.0	2Suff PseudoStemNW	24	313499	cunerogially	0.0	n/a	False
315.899	0.0	1Suff w/o Lat.	12	315899	periodic	1.0	0.0	False
316.866	0.0	2Suff PseudoStemNW	24	316866	hodelessly	0.0	1.0	False
319.05	0.0	1Suff PseudoStemNW	14	319050	subplencial	0.0	0.0	True
321.043	0.0	2Suff w/o Lat.	22	321043	hopefully	1.0	0.0	False
322.835	0.0	1Suff PseudoStemNW	14	322835	gulbsian	0.0	1.0	False
324.669	0.0	0Suff NW	4	324669	isotent	0.0	1.0	False
326.044	0.0	2Suff PseudoStemNW	24	326044	arfulness	0.0	1.0	False
327.661	0.0	0Suff w/o Lat.	2	327661	isolate	1.0	0.0	False
329.278	0.0	2Suff RealStemNW	25	329278	immunability	0.0	0.0	True
331.104	0.0	1Suff w/o Lat.	12	331104	substantial	1.0	0.0	False
332.463	0.0	2Suff w/o Lat.	22	332463	differentiate	1.0	0.0	False
333.947	0.0	2Suff RealStemNW	25	333947	directality	0.0	1.0	False
335.58	0.0	2Suff PseudoStemNW	24	335580	urhanization	0.0	1.0	False
337.023	0.0	0Suff NW	4	337023	betiece	0.0	1.0	False
338.331	0.0	1Suff w/o Lat.	12	338331	accidental	1.0	0.0	False
339.373	0.0	2Suff w/o Lat.	22	339373	decisiveness	1.0	0.0	False
340.815	0.0	2Suff PseudoStemNW	24	340815	lenctionally	0.0	1.0	False
342.032	0.0	0Suff w/o Lat.	2	342032	delight	1.0	0.0	False
343.099	0.0	0Suff NW	4	343099	manfin	0.0	1.0	False
344.525	0.0	1Suff PseudoStemNW	14	344525	fralatize	0.0	1.0	False
345.984	0.0	0Suff NW	4	345984	pead	0.0	1.0	False
347.434	0.0	0Suff NW	4	347434	priueur	0.0	1.0	False
348.784	0.0	1Suff w/o Lat.	12	348784	useless	1.0	0.0	False
349.743	0.0	0Suff NW	4	349743	snought	0.0	0.0	True
350.877	0.0	0Suff NW	4	350877	chansot	0.0	1.0	False
352.169	0.0	0Suff NW	4	352169	headth	0.0	1.0	False
353.578	0.0	2Suff w/o Lat.	22	353578	gracefully	1.0	0.0	False
354.611	0.0	0Suff NW	4	354611	miccess	0.0	1.0	False
355.762	0.0	0Suff NW	4	355762	paffer	0.0	1.0	False
357.02	0.0	1Suff RealStemNW	15	357020	realify	0.0	1.0	False
358.671	0.0	0Suff w/o Lat.	2	358671	lead	1.0	0.0	False
360.146	0.0	2Suff w/ Lat.	21	360146	impressionist	1.0	0.0	False
361.597	0.0	0Suff NW	4	361597	thash	0.0	1.0	False
362.864	0.0	1Suff w/o Lat.	12	362864	basic	1.0	0.0	False
363.939	0.0	1Suff PseudoStemNW	14	363939	nolable	0.0	1.0	False
365.34	0.0	2Suff RealStemNW	25	365340	decisishness	0.0	1.0	False
366.982	0.0	1Suff w/o Lat.	12	366982	ritualist	1.0	0.0	False
368.424	0.0	2Suff w/o Lat.	22	368424	awfully	1.0	0.0	False
369.733	0.0	2Suff RealStemNW	25	369733	governancial	0.0	0.0	True
370.908	0.0	1Suff PseudoStemNW	14	370908	prodfessive	0.0	0.0	True
372.317	0.0	2Suff PseudoStemNW	24	372317	priueurantly	0.0	1.0	False
373.434	0.0	2Suff w/o Lat.	22	373434	relativism	1.0	0.0	False
374.851	0.0	2Suff Composite	23	374851	characteristic	1.0	0.0	False
376.268	0.0	0Suff w/o Lat.	2	376268	thought	1.0	0.0	False
377.335	0.0	0Suff w/o Lat.	2	377335	develop	1.0	0.0	False
378.602	0.0	2Suff Composite	23	378602	stratification	1.0	1.0	True
380.077	0.0	2Suff w/o Lat.	22	380077	reasonably	1.0	0.0	False
381.236	0.0	0Suff NW	4	381236	worch	0.0	1.0	False
382.428	0.0	1Suff w/o Lat.	12	382428	dramatic	1.0	0.0	False
383.545	0.0	2Suff RealStemNW	25	383545	vitalilessly	0.0	1.0	False
384.779	0.0	2Suff RealStemNW	25	384779	soulively	0.0	1.0	False
387.088	0.0	2Suff w/o Lat.	22	387088	designation	1.0	0.0	False
388.23	0.0	2Suff PseudoStemNW	24	388230	segnonistic	0.0	1.0	False
390.056	0.0	1Suff PseudoStemNW	14	390056	hodeful	0.0	0.0	True
391.481	0.0	0Suff NW	4	391481	eant	0.0	1.0	False
393.073	0.0	1Suff PseudoStemNW	14	393073	paskful	0.0	1.0	False
394.457	0.0	1Suff w/o Lat.	12	394457	painful	1.0	0.0	False
395.766	0.0	2Suff PseudoStemNW	24	395766	stumiality	0.0	n/a	False
398.175	0.0	2Suff w/o Lat.	22	398175	faithfully	1.0	0.0	False
399.3	0.0	2Suff PseudoStemNW	24	399300	diructorship	0.0	1.0	False
400.801	0.0	0Suff w/o Lat.	2	400801	order	1.0	0.0	False
401.817	0.0	2Suff RealStemNW	25	401817	materialional	0.0	1.0	False
403.36	0.0	1Suff RealStemNW	15	403360	familior	0.0	1.0	False
405.002	0.0	0Suff w/o Lat.	2	405002	provoke	1.0	0.0	False
406.16	0.0	2Suff w/o Lat.	22	406160	architectural	1.0	0.0	False
407.711	0.0	2Suff PseudoStemNW	24	407711	analkability	0.0	1.0	False
409.011	0.0	1Suff RealStemNW	15	409011	polit	0.0	1.0	False
410.545	0.0	2Suff PseudoStemNW	24	410545	inshemmation	0.0	0.0	True
412.429	0.0	1Suff PseudoStemNW	14	412429	pavediadist	0.0	1.0	False
414.013	0.0	2Suff w/o Lat.	22	414013	regrettably	1.0	0.0	False
415.88	0.0	0Suff w/o Lat.	2	415880	statistic	1.0	0.0	False
417.056	0.0	1Suff w/o Lat.	12	417056	delightful	1.0	0.0	False
418.206	0.0	1Suff PseudoStemNW	14	418206	ramial	0.0	1.0	False
419.306	0.0	2Suff RealStemNW	25	419306	guardifiance	0.0	1.0	False
420.673	0.0	0Suff NW	4	420673	sushect	0.0	1.0	False
422.007	0.0	2Suff PseudoStemNW	24	422007	gloofully	0.0	1.0	False
423.533	0.0	2Suff RealStemNW	25	423533	isolatliness	0.0	1.0	False
432.869	0.0	2Suff RealStemNW	25	432869	hopeively	0.0	1.0	False
434.369	0.0	0Suff NW	4	434369	fale	0.0	1.0	False
435.786	0.0	0Suff w/o Lat.	2	435786	soul	1.0	0.0	False
436.795	0.0	2Suff w/o Lat.	22	436795	periodical	1.0	0.0	False
438.237	0.0	2Suff RealStemNW	25	438237	seasonical	0.0	1.0	False
440.579	0.0	2Suff RealStemNW	25	440579	aimiously	0.0	1.0	False
441.88	0.0	1Suff w/o Lat.	12	441880	furious	1.0	0.0	False
442.905	0.0	0Suff NW	4	442905	esdybit	0.0	1.0	False
444.047	0.0	0Suff w/ Lat.	1	444047	project	1.0	0.0	False
445.072	0.0	2Suff RealStemNW	25	445072	polioner	0.0	1.0	False
446.323	0.0	0Suff NW	4	446323	sork	0.0	1.0	False
447.498	0.0	2Suff w/o Lat.	22	447498	considerately	1.0	0.0	False
449.799	0.0	2Suff w/o Lat.	22	449799	governmental	1.0	0.0	False
451.241	0.0	1Suff w/o Lat.	12	451241	friendly	1.0	0.0	False
452.233	0.0	2Suff Composite	23	452233	vexation	1.0	1.0	True
453.267	0.0	0Suff NW	4	453267	stumia	0.0	1.0	False
454.534	0.0	2Suff Composite	23	454534	cannibalistic	1.0	0.0	False
456.009	0.0	0Suff w/o Lat.	2	456009	soft	1.0	0.0	False
457.035	0.0	1Suff PseudoStemNW	14	457035	halkless	0.0	0.0	True
458.402	0.0	0Suff NW	4	458402	hode	0.0	1.0	False
459.744	0.0	0Suff NW	4	459744	tuty	0.0	1.0	False
460.844	0.0	2Suff w/ Lat.	21	460844	impressionism	1.0	0.0	False
462.595	0.0	2Suff w/o Lat.	22	462595	decorative	1.0	0.0	False
464.137	0.0	2Suff w/o Lat.	22	464137	validation	1.0	0.0	False
465.987	0.0	1Suff PseudoStemNW	14	465987	paftial	0.0	1.0	False
467.263	0.0	1Suff PseudoStemNW	14	467263	hythical	0.0	1.0	False
468.588	0.0	2Suff Composite	23	468588	biblical	1.0	0.0	False
469.955	0.0	2Suff PseudoStemNW	24	469955	pafleurization	0.0	1.0	False
471.472	0.0	2Suff Composite	23	471472	satirical	1.0	1.0	True
473.056	0.0	2Suff w/o Lat.	22	473056	definitely	1.0	0.0	False
474.348	0.0	1Suff PseudoStemNW	14	474348	essoilial	0.0	1.0	False
475.657	0.0	2Suff PseudoStemNW	24	475657	deabonably	0.0	1.0	False
477.841	0.0	1Suff w/o Lat.	12	477841	considerate	1.0	0.0	False
479.175	0.0	0Suff w/o Lat.	2	479175	worth	1.0	0.0	False
480.292	0.0	0Suff w/o Lat.	2	480292	glee	1.0	1.0	True
481.442	0.0	1Suff PseudoStemNW	14	481442	degorate	0.0	0.0	True
483.043	0.0	2Suff PseudoStemNW	24	483043	hodelessness	0.0	1.0	False
484.785	0.0	1Suff w/ Lat.	11	484785	affirmative	1.0	0.0	False
486.135	0.0	1Suff PseudoStemNW	14	486135	sorken	0.0	1.0	False
487.31	0.0	2Suff w/o Lat.	22	487310	partially	1.0	0.0	False
488.586	0.0	2Suff w/o Lat.	22	488586	provocatively	1.0	0.0	False
490.028	0.0	0Suff NW	4	490028	sest	0.0	1.0	False
491.253	0.0	2Suff w/o Lat.	22	491253	assassination	1.0	0.0	False
492.379	0.0	0Suff NW	4	492379	instrove	0.0	0.0	True
493.854	0.0	2Suff w/o Lat.	22	493854	polarize	1.0	1.0	True
496.18	0.0	1Suff w/o Lat.	12	496180	hopeless	1.0	0.0	False
497.247	0.0	2Suff RealStemNW	25	497247	transitality	0.0	1.0	False
499.548	0.0	0Suff w/ Lat.	1	499548	instruct	1.0	0.0	False
500.806	0.0	2Suff PseudoStemNW	24	500806	avoldability	0.0	1.0	False
502.499	0.0	1Suff RealStemNW	15	502499	manen	0.0	1.0	False
503.832	0.0	2Suff w/o Lat.	22	503832	cheerfulness	1.0	0.0	False
505.975	0.0	2Suff w/o Lat.	22	505975	idealistic	1.0	0.0	False
508.109	0.0	0Suff NW	4	508109	hesa	0.0	1.0	False
509.259	0.0	2Suff RealStemNW	25	509259	believator	0.0	1.0	False
511.493	0.0	2Suff w/o Lat.	22	511493	partiality	1.0	0.0	False
512.635	0.0	0Suff NW	4	512635	snight	0.0	1.0	False
514.102	0.0	1Suff PseudoStemNW	14	514102	sushective	0.0	1.0	False
515.528	0.0	2Suff w/o Lat.	22	515528	familiarize	1.0	0.0	False
516.961	0.0	0Suff w/o Lat.	2	516961	consider	1.0	0.0	False
518.628	0.0	2Suff w/o Lat.	22	518628	hopelessly	1.0	0.0	False
520.421	0.0	0Suff NW	4	520421	chier	0.0	1.0	False
521.621	0.0	1Suff PseudoStemNW	14	521621	vimidate	0.0	0.0	True
523.247	0.0	1Suff PseudoStemNW	14	523247	chierful	0.0	0.0	True
525.306	0.0	2Suff w/o Lat.	22	525306	fastener	1.0	0.0	False
526.723	0.0	2Suff PseudoStemNW	24	526723	posicarization	0.0	1.0	False
528.206	0.0	0Suff NW	4	528206	degor	0.0	1.0	False
529.423	0.0	0Suff w/o Lat.	2	529423	forget	1.0	0.0	False
530.907	0.0	1Suff RealStemNW	15	530907	useive	0.0	1.0	False
532.083	0.0	1Suff RealStemNW	15	532083	mistaker	0.0	1.0	False
534.25	0.0	2Suff w/o Lat.	22	534250	originality	1.0	0.0	False
535.742	0.0	0Suff NW	4	535742	eet	0.0	1.0	False
536.867	0.0	0Suff NW	4	536867	glibe	0.0	1.0	False
537.901	0.0	2Suff w/o Lat.	22	537901	rhythmically	1.0	0.0	False
539.243	0.0	2Suff w/o Lat.	22	539243	directorship	1.0	0.0	False
541.602	0.0	1Suff w/o Lat.	12	541602	fatal	1.0	0.0	False
542.619	0.0	2Suff PseudoStemNW	24	542619	affallation	0.0	1.0	False
544.445	0.0	0Suff w/o Lat.	2	544445	profit	1.0	0.0	False
545.745	0.0	1Suff w/o Lat.	12	545745	frightful	1.0	0.0	False
547.237	0.0	2Suff w/o Lat.	22	547237	directional	1.0	0.0	False
548.888	0.0	2Suff w/o Lat.	22	548888	basically	1.0	0.0	False
549.996	0.0	2Suff w/o Lat.	22	549996	transitional	1.0	0.0	False
551.547	0.0	2Suff RealStemNW	25	551547	globical	0.0	0.0	True
553.206	0.0	2Suff PseudoStemNW	24	553206	allidation	0.0	1.0	False
554.79	0.0	0Suff w/o Lat.	2	554790	stealth	1.0	0.0	False
555.873	0.0	2Suff w/o Lat.	22	555873	mythically	1.0	0.0	False
557.09	0.0	2Suff PseudoStemNW	24	557090	detismsfully	0.0	1.0	False
559.441	0.0	2Suff RealStemNW	25	559441	commutfully	0.0	1.0	False
560.791	0.0	1Suff w/o Lat.	12	560791	moisture	1.0	0.0	False
561.942	0.0	2Suff RealStemNW	25	561942	editionate	0.0	1.0	False
563.376	0.0	0Suff w/ Lat.	1	563376	affect	1.0	0.0	False
564.901	0.0	0Suff w/ Lat.	1	564901	exhibit	1.0	0.0	False
566.11	0.0	0Suff NW	4	566110	fleed	0.0	0.0	True
567.152	0.0	2Suff RealStemNW	25	567152	predictator	0.0	0.0	True
569.244	0.0	2Suff w/o Lat.	22	569244	trivialize	1.0	1.0	True
570.703	0.0	0Suff NW	4	570703	peece	0.0	1.0	False
572.078	0.0	1Suff RealStemNW	15	572078	persuasful	0.0	0.0	True
573.612	0.0	1Suff w/o Lat.	12	573612	guilty	1.0	0.0	False
574.904	0.0	1Suff RealStemNW	15	574904	eany	0.0	1.0	False
576.396	0.0	2Suff w/o Lat.	22	576396	childishly	1.0	0.0	False
577.98	0.0	0Suff NW	4	577980	subplence	0.0	1.0	False
579.339	0.0	0Suff NW	4	579339	detisms	0.0	1.0	False
581.081	0.0	1Suff PseudoStemNW	14	581081	snoughtless	0.0	1.0	False
583.415	0.0	0Suff w/ Lat.	1	583415	avail	1.0	0.0	False
584.557	0.0	2Suff PseudoStemNW	24	584557	nerbousness	0.0	1.0	False
585.999	0.0	0Suff w/o Lat.	2	585999	architect	1.0	0.0	False
587.616	0.0	0Suff NW	4	587616	rumic	0.0	1.0	False
588.808	0.0	2Suff Composite	23	588808	amplification	1.0	1.0	True
590.701	0.0	0Suff NW	4	590701	gloo	0.0	1.0	False
591.834	0.0	1Suff w/o Lat.	12	591834	competitive	1.0	0.0	False
594.018	0.0	1Suff PseudoStemNW	14	594018	meabonal	0.0	1.0	False
595.244	0.0	0Suff w/o Lat.	2	595244	nerve	1.0	1.0	True
596.494	0.0	1Suff w/o Lat.	12	596494	exhaustive	1.0	0.0	False
598.778	0.0	1Suff w/o Lat.	12	598778	persuasive	1.0	0.0	False
600.237	0.0	1Suff w/o Lat.	12	600237	transition	1.0	0.0	False
601.596	0.0	2Suff w/o Lat.	22	601596	fatalism	1.0	0.0	False
603.18	0.0	1Suff w/o Lat.	12	603180	sterilize	1.0	1.0	True
604.722	0.0	1Suff w/o Lat.	12	604722	immunize	1.0	0.0	False
605.88	0.0	2Suff RealStemNW	25	605880	sleepery	0.0	0.0	True
607.314	0.0	0Suff NW	4	607314	coul	0.0	1.0	False
619.376	0.0	2Suff w/o Lat.	22	619376	confessional	1.0	0.0	False
620.86	0.0	0Suff NW	4	620860	appigent	0.0	1.0	False
621.985	0.0	2Suff w/o Lat.	22	621985	deadliness	1.0	1.0	True
623.744	0.0	2Suff PseudoStemNW	24	623744	awditional	0.0	1.0	False
624.978	0.0	1Suff w/o Lat.	12	624978	gleeful	1.0	1.0	True
626.062	0.0	1Suff w/o Lat.	12	626062	notify	1.0	0.0	False
627.395	0.0	0Suff w/o Lat.	2	627395	hero	1.0	0.0	False
628.362	0.0	2Suff RealStemNW	25	628362	familiately	0.0	0.0	True
630.696	0.0	1Suff PseudoStemNW	14	630696	mosimize	0.0	1.0	False
632.03	0.0	1Suff RealStemNW	15	632030	isolatate	0.0	n/a	False
634.414	0.0	2Suff w/o Lat.	22	634414	differential	1.0	0.0	False
635.74	0.0	0Suff w/o Lat.	2	635740	ideal	1.0	0.0	False
636.748	0.0	1Suff RealStemNW	15	636748	deadic	0.0	1.0	False
638.057	0.0	2Suff w/o Lat.	22	638057	childishness	1.0	0.0	False
639.674	0.0	1Suff w/o Lat.	12	639674	hopeful	1.0	0.0	False
640.783	0.0	1Suff RealStemNW	15	640783	nervate	0.0	1.0	False
642.05	0.0	1Suff PseudoStemNW	14	642050	preguctable	0.0	n/a	False
644.451	0.0	1Suff RealStemNW	15	644451	developward	0.0	1.0	False
646.368	0.0	2Suff PseudoStemNW	24	646368	miccessfully	0.0	1.0	False
648.493	0.0	1Suff PseudoStemNW	14	648493	farsen	0.0	1.0	False
649.644	0.0	2Suff w/o Lat.	22	649644	agreeably	1.0	0.0	False
650.736	0.0	2Suff PseudoStemNW	24	650736	stitilization	0.0	0.0	True
652.22	0.0	2Suff RealStemNW	25	652220	assassinfully	0.0	n/a	False
654.612	0.0	0Suff w/ Lat.	1	654612	persist	1.0	0.0	False
656.063	0.0	2Suff RealStemNW	25	656063	subjectously	0.0	0.0	True
657.871	0.0	2Suff w/o Lat.	22	657871	relationship	1.0	0.0	False
658.988	0.0	0Suff NW	4	658988	ewsib	0.0	1.0	False
660.064	0.0	1Suff RealStemNW	15	660064	gleeive	0.0	1.0	False
661.397	0.0	1Suff RealStemNW	15	661397	agreeless	0.0	1.0	False
663.531	0.0	1Suff PseudoStemNW	14	663531	ewsibal	0.0	1.0	False
664.79	0.0	2Suff PseudoStemNW	24	664790	squasification	0.0	1.0	False
667.158	0.0	0Suff w/o Lat.	2	667158	finance	1.0	0.0	False
668.441	0.0	1Suff RealStemNW	15	668441	persistify	0.0	n/a	False
670.834	0.0	2Suff w/ Lat.	21	670834	availability	1.0	0.0	False
671.917	0.0	2Suff w/o Lat.	22	671917	educational	1.0	0.0	False
673.284	0.0	2Suff w/o Lat.	22	673284	thankfulness	1.0	0.0	False
674.485	0.0	1Suff w/o Lat.	12	674485	marginal	1.0	0.0	False
676.069	0.0	0Suff NW	4	676069	affaid	0.0	1.0	False
677.294	0.0	1Suff PseudoStemNW	14	677294	aisless	0.0	1.0	False
679.295	0.0	0Suff NW	4	679295	avold	0.0	0.0	True
680.478	0.0	1Suff PseudoStemNW	14	680478	eseretion	0.0	1.0	False
681.579	0.0	2Suff w/o Lat.	22	681579	protectionist	1.0	0.0	False
683.563	0.0	2Suff PseudoStemNW	24	683563	otification	0.0	1.0	False
684.913	0.0	2Suff w/o Lat.	22	684913	originator	1.0	0.0	False
686.68	0.0	2Suff PseudoStemNW	24	686680	fleedily	0.0	1.0	False
687.972	0.0	2Suff Composite	23	687972	revitalization	1.0	0.0	False
690.115	0.0	1Suff PseudoStemNW	14	690115	nolify	0.0	0.0	True
691.332	0.0	0Suff w/o Lat.	2	691332	believe	1.0	0.0	False
693.266	0.0	1Suff w/o Lat.	12	693266	outward	1.0	0.0	False
694.799	0.0	0Suff w/o Lat.	2	694799	function	1.0	0.0	False
695.916	0.0	2Suff w/o Lat.	22	695916	essentially	1.0	0.0	False
697.45	0.0	2Suff w/o Lat.	22	697450	relatively	1.0	0.0	False
698.867	0.0	1Suff PseudoStemNW	14	698867	girernment	0.0	1.0	False
700.776	0.0	1Suff PseudoStemNW	14	700776	cunerogial	0.0	1.0	False
702.418	0.0	0Suff w/o Lat.	2	702418	thank	1.0	0.0	False
703.811	0.0	0Suff w/o Lat.	2	703811	pole	1.0	0.0	False
705.111	0.0	2Suff w/o Lat.	22	705111	realistic	1.0	0.0	False
706.511	0.0	2Suff PseudoStemNW	24	706511	deterfuristic	0.0	1.0	False
708.27	0.0	0Suff NW	4	708270	dehone	0.0	1.0	False
709.846	0.0	2Suff w/o Lat.	22	709846	mobilization	1.0	0.0	False
711.321	0.0	1Suff w/ Lat.	11	711321	affection	1.0	0.0	False
712.488	0.0	1Suff w/o Lat.	12	712488	direction	1.0	0.0	False
713.597	0.0	2Suff Composite	23	713597	allegation	1.0	0.0	False
714.897	0.0	0Suff w/o Lat.	2	714897	sterile	1.0	0.0	False
716.181	0.0	1Suff PseudoStemNW	14	716181	affaidative	0.0	1.0	False
717.473	0.0	2Suff PseudoStemNW	24	717473	mosimization	0.0	1.0	False
718.882	0.0	2Suff Composite	23	718882	dramatization	1.0	0.0	False
720.366	0.0	2Suff w/o Lat.	22	720366	guiltiness	1.0	0.0	False
721.899	0.0	2Suff PseudoStemNW	24	721899	chotintically	0.0	1.0	False
723.575	0.0	2Suff w/o Lat.	22	723575	immunization	1.0	0.0	False
724.742	0.0	2Suff w/o Lat.	22	724742	successfully	1.0	0.0	False
725.826	0.0	2Suff Composite	23	725826	quotation	1.0	0.0	False
727.093	0.0	0Suff NW	4	727093	pasnet	0.0	1.0	False
728.193	0.0	1Suff w/o Lat.	12	728193	thoughtful	1.0	0.0	False
729.202	0.0	2Suff PseudoStemNW	24	729202	vefation	0.0	1.0	False
730.31	0.0	0Suff NW	4	730310	ippune	0.0	1.0	False
731.469	0.0	2Suff w/o Lat.	22	731469	globally	1.0	0.0	False
732.794	0.0	2Suff RealStemNW	25	732794	accidentical	0.0	0.0	True
733.836	0.0	2Suff RealStemNW	25	733836	glorliness	0.0	1.0	False
735.087	0.0	1Suff PseudoStemNW	14	735087	reration	0.0	1.0	False
736.512	0.0	2Suff w/o Lat.	22	736512	decorator	1.0	0.0	False
737.821	0.0	1Suff w/ Lat.	11	737821	extensive	1.0	0.0	False
739.246	0.0	0Suff w/o Lat.	2	739246	pain	1.0	0.0	False
740.288	0.0	0Suff NW	4	740288	rhylph	0.0	1.0	False
741.397	0.0	1Suff w/o Lat.	12	741397	difference	1.0	0.0	False
742.547	0.0	1Suff w/o Lat.	12	742547	originate	1.0	1.0	True
743.79	0.0	2Suff w/o Lat.	22	743790	glorification	1.0	0.0	False
745.09	0.0	0Suff w/o Lat.	2	745090	essence	1.0	0.0	False
746.657	0.0	0Suff NW	4	746657	halk	0.0	1.0	False
747.924	0.0	1Suff RealStemNW	15	747924	instructate	0.0	1.0	False
749.866	0.0	1Suff w/o Lat.	12	749866	relation	1.0	0.0	False
751.484	0.0	0Suff NW	4	751484	hyth	0.0	1.0	False
752.617	0.0	2Suff RealStemNW	25	752617	persuasfully	0.0	1.0	False
754.034	0.0	2Suff w/o Lat.	22	754034	thoughtlessly	1.0	0.0	False
755.652	0.0	2Suff PseudoStemNW	24	755652	pipplification	0.0	1.0	False
757.06	0.0	1Suff PseudoStemNW	14	757060	restittable	0.0	1.0	False
759.394	0.0	1Suff w/o Lat.	12	759394	development	1.0	0.0	False
760.903	0.0	2Suff RealStemNW	25	760903	affirmatfully	0.0	0.0	True
762.545	0.0	0Suff w/o Lat.	2	762545	design	1.0	0.0	False
763.937	0.0	2Suff w/o Lat.	22	763937	peacefully	1.0	0.0	False
765.071	0.0	2Suff w/o Lat.	22	765071	functionally	1.0	0.0	False
766.497	0.0	1Suff w/o Lat.	12	766497	easy	1.0	0.0	False
767.964	0.0	1Suff RealStemNW	15	767964	competitful	0.0	0.0	True
769.106	0.0	1Suff PseudoStemNW	14	769106	chotintical	0.0	0.0	True
770.314	0.0	2Suff RealStemNW	25	770314	fatical	0.0	1.0	False
771.64	0.0	0Suff w/o Lat.	2	771640	compete	1.0	0.0	False
772.673	0.0	1Suff PseudoStemNW	14	772673	thacken	0.0	1.0	False
773.89	0.0	0Suff NW	4	773890	mosime	0.0	1.0	False
775.291	0.0	2Suff PseudoStemNW	24	775291	distawksively	0.0	1.0	False
777.116	0.0	2Suff Composite	23	777116	simplification	1.0	0.0	False
778.392	0.0	1Suff w/ Lat.	11	778392	conceptual	1.0	0.0	False
779.667	0.0	2Suff PseudoStemNW	24	779667	devesugmental	0.0	1.0	False
781.735	0.0	1Suff w/o Lat.	12	781735	agreeable	1.0	0.0	False
782.91	0.0	2Suff w/o Lat.	22	782910	guardianship	1.0	0.0	False
784.877	0.0	1Suff PseudoStemNW	14	784877	orifadal	0.0	1.0	False
786.261	0.0	2Suff Composite	23	786261	vitalization	1.0	0.0	False
788.078	0.0	0Suff NW	4	788078	pask	0.0	1.0	False
789.27	0.0	2Suff w/o Lat.	22	789270	stealthily	1.0	0.0	False
790.421	0.0	1Suff w/o Lat.	12	790421	glorious	1.0	0.0	False
799.982	0.0	0Suff w/o Lat.	2	799982	moist	1.0	0.0	False
800.99	0.0	0Suff NW	4	800990	vimid	0.0	1.0	False
802.133	0.0	2Suff RealStemNW	25	802133	differalism	0.0	1.0	False
803.608	0.0	2Suff PseudoStemNW	24	803608	thashfulness	0.0	1.0	False
804.992	0.0	1Suff w/o Lat.	12	804992	poetic	1.0	0.0	False
805.992	0.0	2Suff PseudoStemNW	24	805992	desalkation	0.0	1.0	False
807.226	0.0	2Suff PseudoStemNW	24	807226	falality	0.0	1.0	False
808.901	0.0	1Suff w/o Lat.	12	808901	glorify	1.0	0.0	False
809.977	0.0	2Suff Composite	23	809977	militarization	1.0	0.0	False
811.41	0.0	1Suff PseudoStemNW	14	811410	glibal	0.0	1.0	False
812.561	0.0	2Suff w/o Lat.	22	812561	triumphantly	1.0	1.0	True
814.07	0.0	2Suff PseudoStemNW	24	814070	pasklessly	0.0	1.0	False
815.853	0.0	0Suff w/o Lat.	2	815853	out	1.0	0.0	False
816.845	0.0	2Suff w/o Lat.	22	816845	differently	1.0	0.0	False
817.962	0.0	2Suff RealStemNW	25	817962	fatantly	0.0	0.0	True
820.213	0.0	0Suff w/o Lat.	2	820213	triumph	1.0	0.0	False
821.313	0.0	1Suff w/o Lat.	12	821313	forgetful	1.0	0.0	False
822.614	0.0	2Suff Composite	23	822614	commutation	1.0	1.0	True
824.814	0.0	2Suff w/o Lat.	22	824814	leadership	1.0	0.0	False
825.823	0.0	1Suff w/o Lat.	12	825823	financial	1.0	0.0	False
826.873	0.0	0Suff w/o Lat.	2	826873	aim	1.0	0.0	False
827.907	0.0	0Suff NW	4	827907	nole	0.0	1.0	False
829.308	0.0	0Suff NW	4	829308	cunerogy	0.0	1.0	False
830.508	0.0	0Suff w/o Lat.	2	830508	protect	1.0	0.0	False
831.508	0.0	1Suff w/o Lat.	12	831508	rhythmic	1.0	0.0	False
832.567	0.0	2Suff PseudoStemNW	24	832567	esdybitionism	0.0	1.0	False
833.984	0.0	2Suff w/o Lat.	22	833984	developmental	1.0	0.0	False
835.659	0.0	2Suff PseudoStemNW	24	835659	uspasionally	0.0	1.0	False
837.21	0.0	1Suff w/o Lat.	12	837210	soulful	1.0	0.0	False
838.41	0.0	1Suff w/o Lat.	12	838410	logical	1.0	0.0	False
839.402	0.0	2Suff w/o Lat.	22	839402	nervousness	1.0	0.0	False
840.836	0.0	2Suff PseudoStemNW	24	840836	tipeliness	0.0	1.0	False
842.67	0.0	0Suff NW	4	842670	concuch	0.0	1.0	False
843.945	0.0	2Suff w/o Lat.	22	843945	additional	1.0	0.0	False
844.987	0.0	2Suff RealStemNW	25	844987	harmiously	0.0	0.0	True
846.263	0.0	0Suff NW	4	846263	devesug	0.0	1.0	False
847.43	0.0	1Suff RealStemNW	15	847430	idealate	0.0	0.0	True
848.697	0.0	0Suff w/o Lat.	2	848697	assassin	1.0	0.0	False
849.881	0.0	2Suff PseudoStemNW	24	849881	pinonical	0.0	1.0	False
851.389	0.0	1Suff w/o Lat.	12	851389	government	1.0	0.0	False
852.465	0.0	1Suff w/o Lat.	12	852465	leader	1.0	0.0	False
853.457	0.0	2Suff PseudoStemNW	24	853457	orifadally	0.0	1.0	False
854.832	0.0	0Suff w/o Lat.	2	854832	add	1.0	0.0	False
856.166	0.0	2Suff PseudoStemNW	24	856166	instrovtional	0.0	1.0	False
858.033	0.0	0Suff w/o Lat.	2	858033	poet	1.0	0.0	False
859.025	0.0	1Suff PseudoStemNW	14	859025	wrotious	0.0	1.0	False
860.684	0.0	1Suff w/o Lat.	12	860684	architecture	1.0	0.0	False
861.909	0.0	0Suff NW	4	861909	lenction	0.0	1.0	False
863.168	0.0	2Suff RealStemNW	25	863168	peaceively	0.0	0.0	True
864.527	0.0	2Suff RealStemNW	25	864527	executarity	0.0	0.0	True
865.519	0.0	1Suff w/o Lat.	12	865519	awful	1.0	0.0	False
866.452	0.0	2Suff RealStemNW	25	866452	editerize	0.0	1.0	False
867.628	0.0	0Suff w/o Lat.	2	867628	trivia	1.0	1.0	True
869.178	0.0	2Suff w/o Lat.	22	869178	wakefulness	1.0	0.0	False
871.337	0.0	2Suff Composite	23	871337	pasteurization	1.0	0.0	False
873.329	0.0	2Suff RealStemNW	25	873329	glorifilessly	0.0	1.0	False
875.313	0.0	0Suff NW	4	875313	paft	0.0	1.0	False
876.347	0.0	2Suff w/ Lat.	21	876347	predictably	1.0	0.0	False
878.231	0.0	2Suff PseudoStemNW	24	878231	eltensively	0.0	1.0	False
880.232	0.0	0Suff NW	4	880232	orifad	0.0	1.0	False
881.574	0.0	1Suff w/o Lat.	12	881574	intensive	1.0	0.0	False
882.741	0.0	0Suff w/o Lat.	2	882741	music	1.0	0.0	False
883.958	0.0	1Suff RealStemNW	15	883958	basly	0.0	1.0	False
885.508	0.0	1Suff PseudoStemNW	14	885508	deabonable	0.0	1.0	False
887.15	0.0	1Suff w/o Lat.	12	887150	original	1.0	0.0	False
888.251	0.0	2Suff PseudoStemNW	24	888251	banically	0.0	1.0	False
889.518	0.0	1Suff w/o Lat.	12	889518	childish	1.0	0.0	False
890.885	0.0	1Suff w/o Lat.	12	890885	protection	1.0	1.0	True
892.735	0.0	2Suff PseudoStemNW	24	892735	stumialize	0.0	1.0	False
894.353	0.0	1Suff w/o Lat.	12	894353	decorate	1.0	0.0	False
895.595	0.0	0Suff w/ Lat.	1	895595	predict	1.0	0.0	False
896.778	0.0	0Suff w/o Lat.	2	896778	myth	1.0	0.0	False
898.004	0.0	2Suff Composite	23	898004	mechanistic	1.0	n/a	False
900.396	0.0	0Suff NW	4	900396	itcress	0.0	1.0	False
901.672	0.0	2Suff RealStemNW	25	901672	notural	0.0	1.0	False
903.439	0.0	2Suff PseudoStemNW	24	903439	snoughtfully	0.0	1.0	False
905.323	0.0	2Suff PseudoStemNW	24	905323	watefulness	0.0	1.0	False
907.165	0.0	1Suff w/o Lat.	12	907165	notable	1.0	0.0	False
908.449	0.0	1Suff RealStemNW	15	908449	wakeive	0.0	1.0	False
909.866	0.0	2Suff RealStemNW	25	909866	awively	0.0	0.0	True
911.216	0.0	0Suff w/o Lat.	2	911216	awe	1.0	0.0	False
912.967	0.0	2Suff w/o Lat.	22	912967	gloriously	1.0	0.0	False
914.35	0.0	2Suff w/o Lat.	22	914350	isolationist	1.0	n/a	False
916.734	0.0	1Suff w/o Lat.	12	916734	addition	1.0	0.0	False
917.726	0.0	2Suff w/o Lat.	22	917726	soulfully	1.0	0.0	False
918.843	0.0	0Suff NW	4	918843	perburve	0.0	1.0	False
920.044	0.0	2Suff w/o Lat.	22	920044	leaderless	1.0	0.0	False
921.728	0.0	1Suff PseudoStemNW	14	921728	awdition	0.0	1.0	False
923.395	0.0	1Suff w/o Lat.	12	923395	thicken	1.0	0.0	False
924.604	0.0	0Suff NW	4	924604	mowth	0.0	1.0	False
925.937	0.0	2Suff w/o Lat.	22	925937	considerably	1.0	0.0	False
927.104	0.0	1Suff w/o Lat.	12	927104	believable	1.0	0.0	False
928.463	0.0	0Suff w/o Lat.	2	928463	persuade	1.0	0.0	False
929.839	0.0	2Suff w/ Lat.	21	929839	exhibitionism	1.0	0.0	False
932.056	0.0	2Suff PseudoStemNW	24	932056	paftiality	0.0	1.0	False
933.915	0.0	2Suff RealStemNW	25	933915	decorural	0.0	1.0	False
935.407	0.0	0Suff w/o Lat.	2	935407	time	1.0	0.0	False
936.824	0.0	2Suff PseudoStemNW	24	936824	hythically	0.0	1.0	False
938.583	0.0	1Suff w/o Lat.	12	938583	partial	1.0	0.0	False
940.834	0.0	1Suff PseudoStemNW	14	940834	urmerly	0.0	1.0	False
942.009	0.0	2Suff RealStemNW	25	942009	decisfully	0.0	0.0	True
943.826	0.0	2Suff w/ Lat.	21	943826	affirmatively	1.0	0.0	False
945.402	0.0	1Suff RealStemNW	15	945402	peaceive	0.0	1.0	False
947.527	0.0	2Suff RealStemNW	25	947527	conceptuical	0.0	0.0	True
949.144	0.0	2Suff RealStemNW	25	949144	marginical	0.0	0.0	True
950.928	0.0	2Suff RealStemNW	25	950928	revitalilessly	0.0	0.0	True
953.179	0.0	1Suff RealStemNW	15	953179	architectian	0.0	1.0	False
954.93	0.0	1Suff PseudoStemNW	14	954930	stumial	0.0	n/a	False
957.339	0.0	2Suff w/o Lat.	22	957339	polarity	1.0	0.0	False
959.614	0.0	2Suff w/o Lat.	22	959614	logically	1.0	0.0	False
960.731	0.0	1Suff w/o Lat.	12	960731	trivial	1.0	1.0	True
962.165	0.0	2Suff RealStemNW	25	962165	impressliness	0.0	0.0	True
963.507	0.0	1Suff PseudoStemNW	14	963507	fleepy	0.0	0.0	True
964.508	0.0	0Suff NW	4	964508	thack	0.0	1.0	False
965.691	0.0	0Suff NW	4	965691	etil	0.0	1.0	False
966.975	0.0	2Suff w/o Lat.	22	966975	thoughtfully	1.0	0.0	False
968.0	0.0	1Suff PseudoStemNW	14	968000	imoatist	0.0	0.0	True
969.359	0.0	0Suff NW	4	969359	meabon	0.0	1.0	False
970.526	0.0	1Suff w/o Lat.	12	970526	timely	1.0	0.0	False
976.128	0.0	1Suff PseudoStemNW	14	976128	wrotify	0.0	1.0	False
977.603	0.0	1Suff RealStemNW	15	977603	provocatful	0.0	0.0	True
979.712	0.0	0Suff NW	4	979712	eltene	0.0	1.0	False
980.788	0.0	0Suff w/o Lat.	2	980788	intense	1.0	0.0	False
981.771	0.0	2Suff w/o Lat.	22	981771	notification	1.0	0.0	False
982.838	0.0	0Suff NW	4	982838	fars	0.0	1.0	False
984.064	0.0	0Suff NW	4	984064	moel	0.0	1.0	False
985.164	0.0	0Suff w/o Lat.	2	985164	part	1.0	0.0	False
986.123	0.0	0Suff w/o Lat.	2	986123	educate	1.0	0.0	False
987.106	0.0	1Suff w/o Lat.	12	987106	gracious	1.0	0.0	False
988.148	0.0	2Suff PseudoStemNW	24	988148	utelessness	0.0	1.0	False
989.39	0.0	2Suff w/o Lat.	22	989390	restlessness	1.0	0.0	False
990.816	0.0	2Suff w/o Lat.	22	990816	executioner	1.0	0.0	False
992.541	0.0	2Suff w/o Lat.	22	992541	notably	1.0	0.0	False
993.583	0.0	0Suff NW	4	993583	falget	0.0	1.0	False
994.642	0.0	2Suff RealStemNW	25	994642	provocatfully	0.0	1.0	False
996.234	0.0	0Suff w/o Lat.	2	996234	dead	1.0	0.0	False
997.134	0.0	2Suff PseudoStemNW	24	997134	reratively	0.0	1.0	False
998.868	0.0	0Suff w/o Lat.	2	998868	fast	1.0	0.0	False
999.727	0.0	0Suff NW	4	999727	analk	0.0	1.0	False
1000.927	0.0	1Suff w/o Lat.	12	1000927	cheerful	1.0	0.0	False
1002.011	0.0	0Suff NW	4	1002011	ute	0.0	0.0	True
1003.103	0.0	2Suff PseudoStemNW	24	1003103	prebitably	0.0	1.0	False
1004.553	0.0	2Suff w/o Lat.	22	1004553	manliness	1.0	0.0	False
1005.962	0.0	2Suff RealStemNW	25	1005962	satirally	0.0	1.0	False
1007.371	0.0	2Suff PseudoStemNW	24	1007371	cossetitively	0.0	1.0	False
1009.121	0.0	1Suff RealStemNW	15	1009121	gracance	0.0	1.0	False
1010.355	0.0	0Suff NW	4	1010355	provame	0.0	1.0	False
1012.239	0.0	2Suff RealStemNW	25	1012239	substanceical	0.0	1.0	False
1014.031	0.0	0Suff w/o Lat.	2	1014031	harm	1.0	0.0	False
1015.14	0.0	0Suff NW	4	1015140	uspasion	0.0	1.0	False
1016.39	0.0	2Suff PseudoStemNW	24	1016390	comlomation	0.0	1.0	False
1017.757	0.0	1Suff PseudoStemNW	14	1017757	uspasional	0.0	1.0	False
1018.999	0.0	2Suff RealStemNW	25	1018999	musicical	0.0	1.0	False
1020.708	0.0	2Suff RealStemNW	25	1020708	characterional	0.0	0.0	True
1022.5	0.0	0Suff w/o Lat.	2	1022500	govern	1.0	0.0	False
1023.626	0.0	2Suff RealStemNW	25	1023626	financeical	0.0	0.0	True
1025.376	0.0	1Suff w/ Lat.	11	1025376	predictable	1.0	0.0	False
1027.018	0.0	2Suff Composite	23	1027018	perturbation	1.0	1.0	True
1028.919	0.0	0Suff w/o Lat.	2	1028919	margin	1.0	0.0	False
1030.003	0.0	2Suff w/o Lat.	22	1030003	dramatically	1.0	0.0	False
1031.236	0.0	1Suff RealStemNW	15	1031236	thoughtive	0.0	0.0	True
1032.645	0.0	1Suff w/ Lat.	11	1032645	instruction	1.0	0.0	False
1033.904	0.0	1Suff w/o Lat.	12	1033904	considerable	1.0	0.0	False
1035.229	0.0	0Suff w/o Lat.	2	1035229	rest	1.0	0.0	False
1036.313	0.0	0Suff NW	4	1036313	attossin	0.0	1.0	False
1037.413	0.0	2Suff w/o Lat.	22	1037413	cheerfully	1.0	0.0	False
1038.472	0.0	0Suff NW	4	1038472	imoat	0.0	1.0	False
1039.572	0.0	2Suff PseudoStemNW	24	1039572	chirdishly	0.0	1.0	False
1040.914	0.0	1Suff RealStemNW	15	1040914	immunist	0.0	0.0	True
1042.123	0.0	2Suff w/o Lat.	22	1042123	thickener	1.0	0.0	False
1043.615	0.0	0Suff NW	4	1043615	arx	0.0	1.0	False
1044.782	0.0	0Suff w/ Lat.	1	1044782	progress	1.0	0.0	False
1046.049	0.0	0Suff NW	4	1046049	rerard	0.0	1.0	False
1047.291	0.0	0Suff w/o Lat.	2	1047291	man	1.0	0.0	False
1048.308	0.0	2Suff PseudoStemNW	24	1048308	figically	0.0	1.0	False
1049.767	0.0	2Suff w/o Lat.	22	1049767	fatality	1.0	0.0	False
1051.393	0.0	2Suff w/o Lat.	22	1051393	furiously	1.0	0.0	False
1053.06	0.0	0Suff NW	4	1053060	pavediad	0.0	1.0	False
1054.652	0.0	1Suff w/o Lat.	12	1054652	global	1.0	0.0	False
1056.419	0.0	0Suff w/o Lat.	2	1056419	child	1.0	0.0	False
1057.745	0.0	1Suff w/o Lat.	12	1057745	manly	1.0	0.0	False
1058.787	0.0	0Suff w/ Lat.	1	1058787	subject	1.0	0.0	False
1060.362	0.0	1Suff w/o Lat.	12	1060362	polar	1.0	0.0	False
1061.462	0.0	2Suff w/ Lat.	21	1061462	persistently	1.0	1.0	True
1063.18	0.0	0Suff NW	4	1063180	wroty	0.0	1.0	False
1064.797	0.0	0Suff w/o Lat.	2	1064797	use	1.0	0.0	False
1066.039	0.0	2Suff w/o Lat.	22	1066039	nervously	1.0	0.0	False
1067.881	0.0	2Suff RealStemNW	25	1067881	moistantly	0.0	1.0	False
1069.165	0.0	2Suff PseudoStemNW	24	1069165	pafferential	0.0	1.0	False
1070.599	0.0	0Suff w/o Lat.	2	1070599	fury	1.0	0.0	False
1071.891	0.0	1Suff w/o Lat.	12	1071891	isolation	1.0	0.0	False
1073.033	0.0	0Suff NW	4	1073033	steadth	0.0	1.0	False
1074.541	0.0	1Suff w/o Lat.	12	1074541	relative	1.0	0.0	False
1076.375	0.0	2Suff RealStemNW	25	1076375	quotfully	0.0	n/a	False
1078.784	0.0	1Suff w/o Lat.	12	1078784	marketable	1.0	0.0	False
1080.185	0.0	1Suff w/o Lat.	12	1080185	occasional	1.0	0.0	False
1081.902	0.0	2Suff RealStemNW	25	1081902	painively	0.0	1.0	False
1083.603	0.0	1Suff RealStemNW	15	1083603	furance	0.0	0.0	True
1084.978	0.0	2Suff PseudoStemNW	24	1084978	concuchualize	0.0	1.0	False
1086.262	0.0	2Suff Composite	23	1086262	sterilization	1.0	0.0	False
1087.645	0.0	1Suff RealStemNW	15	1087645	leador	0.0	1.0	False
1088.996	0.0	1Suff RealStemNW	15	1088996	exhibitate	0.0	1.0	False
1090.813	0.0	1Suff PseudoStemNW	14	1090813	arful	0.0	1.0	False
1091.938	0.0	0Suff w/o Lat.	2	1091938	mobile	1.0	0.0	False
1093.139	0.0	1Suff PseudoStemNW	14	1093139	goulty	0.0	1.0	False
1094.206	0.0	1Suff PseudoStemNW	14	1094206	dehonite	0.0	1.0	False
1095.406	0.0	2Suff w/o Lat.	22	1095406	marginally	1.0	0.0	False
1096.557	0.0	2Suff w/o Lat.	22	1096557	softener	1.0	0.0	False
1097.932	0.0	0Suff w/o Lat.	2	1097932	market	1.0	0.0	False
1098.991	0.0	2Suff RealStemNW	25	1098991	easery	0.0	1.0	False
1100.316	0.0	1Suff w/o Lat.	12	1100316	familiar	1.0	0.0	False
1101.383	0.0	2Suff w/o Lat.	22	1101383	aimlessly	1.0	0.0	False
1103.009	0.0	1Suff w/ Lat.	11	1103009	subjective	1.0	0.0	False
1104.101	0.0	0Suff w/o Lat.	2	1104101	edit	1.0	0.0	False
1105.109	0.0	0Suff w/o Lat.	2	1105109	valid	1.0	0.0	False
1106.151	0.0	1Suff w/o Lat.	12	1106151	reasonable	1.0	0.0	False
1107.41	0.0	1Suff PseudoStemNW	14	1107410	tipely	0.0	1.0	False
1108.719	0.0	0Suff w/o Lat.	2	1108719	origin	1.0	0.0	False
1109.619	0.0	0Suff w/o Lat.	2	1109619	reason	1.0	0.0	False
1110.603	0.0	0Suff w/o Lat.	2	1110603	glory	1.0	0.0	False
1111.645	0.0	2Suff Composite	23	1111645	deterministic	1.0	1.0	True
1113.137	0.0	2Suff w/o Lat.	22	1113137	ethically	1.0	0.0	False
1114.354	0.0	0Suff w/o Lat.	2	1114354	success	1.0	0.0	False
1115.387	0.0	0Suff NW	4	1115387	atrie	0.0	1.0	False
1116.438	0.0	2Suff w/ Lat.	21	1116438	extensively	1.0	0.0	False
1117.613	0.0	0Suff NW	4	1117613	wead	0.0	0.0	True
1118.572	0.0	1Suff w/o Lat.	12	1118572	ethical	1.0	0.0	False
1119.68	0.0	2Suff RealStemNW	25	1119680	poetally	0.0	n/a	False
1122.064	0.0	2Suff w/o Lat.	22	1122064	marketability	1.0	0.0	False
1123.448	0.0	1Suff RealStemNW	15	1123448	heroal	0.0	0.0	True
1124.924	0.0	2Suff RealStemNW	25	1124924	deadionist	0.0	1.0	False
1126.691	0.0	1Suff RealStemNW	15	1126691	periodal	0.0	0.0	True
1128.883	0.0	0Suff NW	4	1128883	frala	0.0	1.0	False
1130.184	0.0	2Suff Composite	23	1130184	categorical	1.0	0.0	False
1131.517	0.0	2Suff PseudoStemNW	24	1131517	concolerably	0.0	1.0	False
1133.601	0.0	2Suff RealStemNW	25	1133601	considerishly	0.0	0.0	True
1134.76	0.0	2Suff RealStemNW	25	1134760	ritualional	0.0	0.0	True
1137.094	0.0	2Suff PseudoStemNW	24	1137094	essoilially	0.0	1.0	False
1145.663	0.0	2Suff PseudoStemNW	24	1145663	restittably	0.0	n/a	False
1148.056	0.0	2Suff RealStemNW	25	1148056	dramationist	0.0	1.0	False
1150.24	0.0	2Suff PseudoStemNW	24	1150240	cidlical	0.0	1.0	False
1151.682	0.0	2Suff PseudoStemNW	24	1151682	rerativity	0.0	0.0	True
1153.799	0.0	1Suff w/ Lat.	11	1153799	projection	1.0	0.0	False
1155.025	0.0	1Suff w/ Lat.	11	1155025	mistaken	1.0	0.0	False
1156.458	0.0	2Suff RealStemNW	25	1156458	agreeally	0.0	1.0	False
1157.95	0.0	2Suff RealStemNW	25	1157950	persistalism	0.0	1.0	False
1159.518	0.0	0Suff w/o Lat.	2	1159518	material	1.0	0.0	False
1160.543	0.0	0Suff w/o Lat.	2	1160543	logic	1.0	0.0	False
1161.627	0.0	2Suff w/o Lat.	22	1161627	speedily	1.0	0.0	False
1162.677	0.0	1Suff w/o Lat.	12	1162677	orderly	1.0	0.0	False
1163.811	0.0	2Suff RealStemNW	25	1163811	definerize	0.0	1.0	False
1165.078	0.0	1Suff w/o Lat.	12	1165078	graceful	1.0	0.0	False
1166.07	0.0	2Suff w/o Lat.	22	1166070	commentator	1.0	0.0	False
1167.328	0.0	0Suff NW	4	1167328	grame	0.0	1.0	False
1168.47	0.0	0Suff w/o Lat.	2	1168470	differ	1.0	1.0	True
1169.646	0.0	1Suff RealStemNW	15	1169646	protectate	0.0	0.0	True
1170.996	0.0	2Suff w/o Lat.	22	1170996	seasonally	1.0	0.0	False
1172.038	0.0	2Suff w/ Lat.	21	1172038	instructional	1.0	0.0	False
1173.372	0.0	0Suff w/ Lat.	1	1173372	mistake	1.0	0.0	False
1174.33	0.0	1Suff w/o Lat.	12	1174330	realist	1.0	1.0	True
1176.456	0.0	0Suff w/o Lat.	2	1176456	fate	1.0	0.0	False
1177.398	0.0	2Suff RealStemNW	25	1177398	categorally	0.0	1.0	False
1179.332	0.0	2Suff w/o Lat.	22	1179332	worthlessness	1.0	0.0	False
1181.033	0.0	0Suff NW	4	1181033	goult	0.0	1.0	False
1182.116	0.0	0Suff NW	4	1182116	prodfess	0.0	1.0	False
1183.525	0.0	2Suff PseudoStemNW	24	1183525	worchlessness	0.0	1.0	False
1184.909	0.0	0Suff NW	4	1184909	han	0.0	1.0	False
1186.034	0.0	2Suff w/o Lat.	22	1186034	uselessness	1.0	1.0	True
1187.868	0.0	2Suff PseudoStemNW	24	1187868	stoteldionist	0.0	1.0	False
1189.252	0.0	1Suff PseudoStemNW	14	1189252	devadive	0.0	1.0	False
1190.56	0.0	2Suff w/ Lat.	21	1190560	subjectivity	1.0	1.0	True
1192.294	0.0	2Suff w/o Lat.	22	1192294	forgetfulness	1.0	0.0	False
1193.553	0.0	0Suff w/ Lat.	1	1193553	extend	1.0	0.0	False
1194.837	0.0	1Suff w/o Lat.	12	1194837	peaceful	1.0	0.0	False
1195.979	0.0	1Suff RealStemNW	15	1195979	marginic	0.0	1.0	False
1197.738	0.0	1Suff RealStemNW	15	1197738	delightive	0.0	1.0	False
1199.146	0.0	2Suff RealStemNW	25	1199146	manionist	0.0	1.0	False
1200.68	0.0	2Suff w/o Lat.	22	1200680	relativity	1.0	0.0	False
1202.247	0.0	2Suff w/o Lat.	22	1202247	financially	1.0	0.0	False
1203.331	0.0	1Suff PseudoStemNW	14	1203331	distawksive	0.0	1.0	False
1205.265	0.0	2Suff PseudoStemNW	24	1205265	pafferentiate	0.0	1.0	False
1207.182	0.0	2Suff w/o Lat.	22	1207182	outwardly	1.0	0.0	False
1208.708	0.0	0Suff w/o Lat.	2	1208708	ceremony	1.0	0.0	False
1210.091	0.0	0Suff w/o Lat.	2	1210091	faith	1.0	0.0	False
1211.384	0.0	1Suff PseudoStemNW	14	1211384	prowertion	0.0	1.0	False
1212.642	0.0	0Suff NW	4	1212642	urmer	0.0	1.0	False
1214.059	0.0	0Suff NW	4	1214059	eserete	0.0	1.0	False
1215.335	0.0	2Suff w/o Lat.	22	1215335	adaptability	1.0	1.0	True
1216.802	0.0	1Suff RealStemNW	15	1216802	exhaustful	0.0	0.0	True
1218.019	0.0	2Suff w/o Lat.	22	1218019	harmlessly	1.0	0.0	False
1219.661	0.0	2Suff w/o Lat.	22	1219661	usefully	1.0	0.0	False
1220.753	0.0	0Suff NW	4	1220753	concoler	0.0	1.0	False
1222.387	0.0	2Suff RealStemNW	25	1222387	marketfulness	0.0	1.0	False
1224.029	0.0	1Suff RealStemNW	15	1224029	poetal	0.0	1.0	False
1225.221	0.0	1Suff PseudoStemNW	14	1225221	analkable	0.0	1.0	False
1226.563	0.0	1Suff w/o Lat.	12	1226563	thoughtless	1.0	0.0	False
1228.239	0.0	0Suff w/o Lat.	2	1228239	transit	1.0	1.0	True
1229.522	0.0	1Suff RealStemNW	15	1229522	magnetal	0.0	1.0	False
1231.106	0.0	0Suff NW	4	1231106	thiend	0.0	1.0	False
1232.257	0.0	2Suff w/o Lat.	22	1232257	frightfully	1.0	1.0	True
1234.141	0.0	1Suff RealStemNW	15	1234141	childory	0.0	1.0	False
1235.583	0.0	2Suff Composite	23	1235583	inflammation	1.0	0.0	False
1237.166	0.0	0Suff w/o Lat.	2	1237166	comment	1.0	0.0	False
1238.367	0.0	1Suff w/o Lat.	12	1238367	heroic	1.0	0.0	False
1239.351	0.0	1Suff RealStemNW	15	1239351	extensful	0.0	1.0	False
1240.909	0.0	1Suff RealStemNW	15	1240909	marketless	0.0	1.0	False
1242.326	0.0	0Suff w/o Lat.	2	1242326	thick	1.0	0.0	False
1243.535	0.0	1Suff w/o Lat.	12	1243535	nervous	1.0	0.0	False
1244.902	0.0	0Suff w/o Lat.	2	1244902	execute	1.0	0.0	False
1246.236	0.0	1Suff w/ Lat.	11	1246236	progressive	1.0	0.0	False
1247.536	0.0	1Suff PseudoStemNW	14	1247536	headthy	0.0	0.0	True
1248.978	0.0	0Suff NW	4	1248978	distawks	0.0	0.0	True
1250.396	0.0	0Suff NW	4	1250396	nerbs	0.0	0.0	True
1251.679	0.0	2Suff RealStemNW	25	1251679	relatifiable	0.0	1.0	False
1253.588	0.0	1Suff w/o Lat.	12	1253588	soften	1.0	0.0	False
1254.614	0.0	1Suff w/o Lat.	12	1254614	triumphant	1.0	1.0	True
1256.056	0.0	2Suff PseudoStemNW	24	1256056	sorkener	0.0	1.0	False
1257.281	0.0	1Suff RealStemNW	15	1257281	availless	0.0	1.0	False
1258.74	0.0	0Suff NW	4	1258740	mistile	0.0	1.0	False
1259.832	0.0	2Suff RealStemNW	25	1259832	raceical	0.0	1.0	False
1260.957	0.0	0Suff NW	4	1260957	prebit	0.0	1.0	False
1262.549	0.0	2Suff PseudoStemNW	24	1262549	mistilenly	0.0	1.0	False
1263.933	0.0	1Suff w/o Lat.	12	1263933	magnetic	1.0	0.0	False
1265.392	0.0	2Suff RealStemNW	25	1265392	projectliness	0.0	0.0	True
1267.234	0.0	1Suff w/o Lat.	12	1267234	essential	1.0	0.0	False
1268.326	0.0	1Suff w/o Lat.	12	1268326	thankful	1.0	0.0	False
1269.285	0.0	1Suff PseudoStemNW	14	1269285	appigental	0.0	1.0	False
1270.477	0.0	2Suff PseudoStemNW	24	1270477	ictressionism	0.0	1.0	False
1271.685	0.0	0Suff NW	4	1271685	pipsist	0.0	1.0	False
1272.736	0.0	0Suff NW	4	1272736	deabon	0.0	1.0	False
1273.811	0.0	0Suff w/o Lat.	2	1273811	ritual	1.0	0.0	False
1274.903	0.0	2Suff PseudoStemNW	24	1274903	perburbation	0.0	1.0	False
1275.962	0.0	1Suff w/o Lat.	12	1275962	decisive	1.0	0.0	False
1277.045	0.0	2Suff PseudoStemNW	24	1277045	onnensively	0.0	1.0	False
1278.129	0.0	0Suff w/o Lat.	2	1278129	agree	1.0	0.0	False
1279.029	0.0	2Suff PseudoStemNW	24	1279029	denboderation	0.0	1.0	False
1280.121	0.0	1Suff RealStemNW	15	1280121	ritualify	0.0	1.0	False
1281.814	0.0	2Suff w/o Lat.	22	1281814	racially	1.0	0.0	False
1283.022	0.0	0Suff w/o Lat.	2	1283022	ease	1.0	0.0	False
1284.156	0.0	1Suff PseudoStemNW	14	1284156	rhylphic	0.0	1.0	False
1285.306	0.0	2Suff w/ Lat.	21	1285306	progressively	1.0	0.0	False
1286.732	0.0	1Suff w/o Lat.	12	1286732	guardian	1.0	0.0	False
1287.982	0.0	0Suff w/o Lat.	2	1287982	race	1.0	0.0	False
1288.924	0.0	2Suff w/o Lat.	22	1288924	editorship	1.0	0.0	False
1290.708	0.0	2Suff PseudoStemNW	24	1290708	prodfessively	0.0	1.0	False
1292.434	0.0	2Suff RealStemNW	25	1292434	graceively	0.0	1.0	False
1294.134	0.0	2Suff PseudoStemNW	24	1294134	orifadality	0.0	1.0	False
1295.493	0.0	2Suff w/o Lat.	22	1295493	isolationism	1.0	1.0	True
1297.393	0.0	2Suff w/o Lat.	22	1297393	orderliness	1.0	0.0	False
1299.044	0.0	2Suff w/o Lat.	22	1299044	profitably	1.0	0.0	False
1301.061	0.0	0Suff NW	4	1301061	coppent	0.0	1.0	False
1302.203	0.0	0Suff NW	4	1302203	gulbs	0.0	1.0	False
1303.162	0.0	0Suff w/ Lat.	1	1303162	concept	1.0	0.0	False
1304.337	0.0	2Suff w/o Lat.	22	1304337	relational	1.0	0.0	False
1306.104	0.0	2Suff w/o Lat.	22	1306104	poetical	1.0	0.0	False
1307.496	0.0	0Suff w/o Lat.	2	1307496	confess	1.0	0.0	False
1308.705	0.0	1Suff w/o Lat.	12	1308705	seasonal	1.0	0.0	False
1313.473	0.0	2Suff Composite	23	1313473	affectation	1.0	0.0	False
1315.007	0.0	1Suff PseudoStemNW	14	1315007	snightful	0.0	1.0	False
1316.583	0.0	0Suff NW	4	1316583	figic	0.0	1.0	False
1317.7	0.0	1Suff w/o Lat.	12	1317700	adaptable	1.0	0.0	False
1318.9	0.0	0Suff NW	4	1318900	corzess	0.0	1.0	False
1319.992	0.0	1Suff w/o Lat.	12	1319992	commentate	1.0	1.0	True
1321.517	0.0	2Suff w/o Lat.	22	1321517	distinctively	1.0	0.0	False
1322.976	0.0	2Suff RealStemNW	25	1322976	futurional	0.0	1.0	False
1324.46	0.0	1Suff PseudoStemNW	14	1324460	falal	0.0	1.0	False
1325.56	0.0	0Suff NW	4	1325560	ais	0.0	1.0	False
1326.569	0.0	0Suff w/o Lat.	2	1326569	wake	1.0	0.0	False
1327.519	0.0	1Suff w/o Lat.	12	1327519	restless	1.0	0.0	False
1328.603	0.0	0Suff NW	4	1328603	girern	0.0	1.0	False
1329.612	0.0	1Suff RealStemNW	15	1329612	logicic	0.0	1.0	False
1330.837	0.0	2Suff w/o Lat.	22	1330837	exhaustively	1.0	0.0	False
1332.354	0.0	0Suff w/o Lat.	2	1332354	peace	1.0	0.0	False
1333.379	0.0	0Suff w/o Lat.	2	1333379	direct	1.0	0.0	False
1334.388	0.0	0Suff NW	4	1334388	wate	0.0	1.0	False
1335.705	0.0	0Suff w/o Lat.	2	1335705	grace	1.0	0.0	False
1336.639	0.0	2Suff w/ Lat.	21	1336639	conceptually	1.0	0.0	False
1338.098	0.0	2Suff PseudoStemNW	24	1338098	headthily	0.0	1.0	False
1339.331	0.0	1Suff w/o Lat.	12	1339331	racial	1.0	0.0	False
1340.315	0.0	0Suff NW	4	1340315	finiles	0.0	1.0	False
1341.382	0.0	0Suff w/o Lat.	2	1341382	health	1.0	0.0	False
1342.366	0.0	1Suff PseudoStemNW	14	1342366	thashful	0.0	1.0	False
1343.533	0.0	1Suff w/o Lat.	12	1343533	mythical	1.0	0.0	False
1344.558	0.0	0Suff NW	4	1344558	fleep	0.0	1.0	False
1345.65	0.0	2Suff Composite	23	1345650	corporation	1.0	0.0	False
1346.95	0.0	1Suff w/o Lat.	12	1346950	harmless	1.0	0.0	False
1348.126	0.0	1Suff w/o Lat.	12	1348126	dramatize	1.0	0.0	False
1349.443	0.0	2Suff RealStemNW	25	1349443	confessality	0.0	1.0	False
1350.952	0.0	0Suff NW	4	1350952	musual	0.0	1.0	False
1352.26	0.0	0Suff w/ Lat.	1	1352260	affirm	1.0	1.0	True
1353.352	0.0	2Suff w/ Lat.	21	1353352	conceptualize	1.0	0.0	False
1354.861	0.0	1Suff w/o Lat.	12	1354861	mobilize	1.0	0.0	False
1356.145	0.0	2Suff w/o Lat.	22	1356145	persuasively	1.0	0.0	False
1357.62	0.0	0Suff w/o Lat.	2	1357620	relate	1.0	0.0	False
1358.687	0.0	0Suff NW	4	1358687	mevion	0.0	1.0	False
1359.746	0.0	0Suff NW	4	1359746	chird	0.0	1.0	False
1360.955	0.0	2Suff RealStemNW	25	1360955	restiousness	0.0	1.0	False
1362.538	0.0	1Suff w/o Lat.	12	1362538	execution	1.0	0.0	False
1363.714	0.0	1Suff w/o Lat.	12	1363714	statistical	1.0	0.0	False
1365.089	0.0	1Suff PseudoStemNW	14	1365089	betiecable	0.0	1.0	False
1366.681	0.0	1Suff w/o Lat.	12	1366681	sleepy	1.0	0.0	False
1367.715	0.0	1Suff w/o Lat.	12	1367715	distinctive	1.0	0.0	False
1368.999	0.0	0Suff w/o Lat.	2	1368999	define	1.0	1.0	True
1370.299	0.0	1Suff w/o Lat.	12	1370299	worthless	1.0	0.0	False
1371.675	0.0	0Suff NW	4	1371675	awd	0.0	1.0	False
1372.775	0.0	1Suff RealStemNW	15	1372775	restable	0.0	0.0	True
1374.242	0.0	1Suff RealStemNW	15	1374242	conceptuic	0.0	1.0	False
1375.751	0.0	0Suff NW	4	1375751	onnense	0.0	1.0	False
1377.051	0.0	2Suff RealStemNW	25	1377051	ailistic	0.0	1.0	False
1378.443	0.0	1Suff PseudoStemNW	14	1378443	worchless	0.0	1.0	False
1379.66	0.0	2Suff PseudoStemNW	24	1379660	dehonitive	0.0	1.0	False
1381.102	0.0	2Suff Composite	23	1381102	futuristic	1.0	1.0	True
1382.445	0.0	1Suff PseudoStemNW	14	1382445	falumful	0.0	1.0	False
1383.745	0.0	1Suff w/o Lat.	12	1383745	idealist	1.0	1.0	True
1385.104	0.0	0Suff NW	4	1385104	tipe	0.0	1.0	False
1386.054	0.0	0Suff NW	4	1386054	helily	0.0	1.0	False
1387.254	0.0	2Suff w/o Lat.	22	1387254	materialistic	1.0	1.0	True
1388.805	0.0	2Suff PseudoStemNW	24	1388805	falumfilly	0.0	1.0	False
1389.889	0.0	2Suff PseudoStemNW	24	1389889	eetwardly	0.0	1.0	False
1391.181	0.0	0Suff NW	4	1391181	affall	0.0	1.0	False
1392.231	0.0	1Suff w/o Lat.	12	1392231	speedy	1.0	1.0	True
1393.34	0.0	0Suff NW	4	1393340	devade	0.0	1.0	False
1394.665	0.0	2Suff PseudoStemNW	24	1394665	pasnetically	0.0	1.0	False
1396.107	0.0	1Suff w/ Lat.	11	1396107	exhibition	1.0	0.0	False
1397.449	0.0	0Suff w/o Lat.	2	1397449	magnet	1.0	0.0	False
1398.616	0.0	1Suff w/o Lat.	12	1398616	materialist	1.0	0.0	False
1400.192	0.0	0Suff w/o Lat.	2	1400192	immune	1.0	0.0	False
1401.3	0.0	0Suff w/o Lat.	2	1401300	distinct	1.0	0.0	False
1402.576	0.0	2Suff w/o Lat.	22	1402576	delightfully	1.0	0.0	False
1403.968	0.0	2Suff RealStemNW	25	1403968	idealional	0.0	1.0	False
1405.302	0.0	0Suff NW	4	1405302	essoils	0.0	1.0	False
1406.435	0.0	0Suff NW	4	1406435	desalk	0.0	1.0	False
1407.602	0.0	1Suff RealStemNW	15	1407602	differious	0.0	1.0	False
1408.978	0.0	1Suff w/o Lat.	12	1408978	different	1.0	0.0	False
1410.045	0.0	1Suff RealStemNW	15	1410045	impressate	0.0	1.0	False
1412.145	0.0	2Suff w/o Lat.	22	1412145	intensively	1.0	0.0	False
1413.796	0.0	1Suff PseudoStemNW	14	1413796	thiendly	0.0	1.0	False
1415.063	0.0	1Suff PseudoStemNW	14	1415063	prebitable	0.0	1.0	False
1416.964	0.0	2Suff PseudoStemNW	24	1416964	nerbously	0.0	1.0	False
1418.472	0.0	0Suff w/o Lat.	2	1418472	ethic	1.0	n/a	False
1420.865	0.0	2Suff RealStemNW	25	1420865	orderionist	0.0	1.0	False
1422.24	0.0	2Suff w/o Lat.	22	1422240	magnetically	1.0	0.0	False
1424.066	0.0	1Suff w/o Lat.	12	1424066	validate	1.0	0.0	False
1425.233	0.0	2Suff w/o Lat.	22	1425233	triviality	1.0	1.0	True
1426.45	0.0	0Suff NW	4	1426450	rame	0.0	0.0	True
1427.608	0.0	2Suff w/o Lat.	22	1427608	easily	1.0	0.0	False
1428.567	0.0	2Suff w/o Lat.	22	1428567	healthily	1.0	0.0	False
1430.193	0.0	1Suff PseudoStemNW	14	1430193	fralatic	0.0	1.0	False
1431.318	0.0	2Suff RealStemNW	25	1431318	cheerability	0.0	1.0	False
1432.802	0.0	1Suff w/o Lat.	12	1432802	wakeful	1.0	0.0	False
1434.06	0.0	0Suff w/o Lat.	2	1434060	cheer	1.0	0.0	False
1435.311	0.0	2Suff w/o Lat.	22	1435311	idealization	1.0	0.0	False
1436.745	0.0	2Suff w/ Lat.	21	1436745	subjectively	1.0	1.0	True
1438.045	0.0	2Suff w/o Lat.	22	1438045	fatalist	1.0	0.0	False
1439.287	0.0	1Suff RealStemNW	15	1439287	confessate	0.0	1.0	False
1441.021	0.0	2Suff RealStemNW	25	1441021	realional	0.0	1.0	False
1442.396	0.0	2Suff PseudoStemNW	24	1442396	chierfully	0.0	1.0	False
1443.972	0.0	2Suff w/ Lat.	21	1443972	affectionate	1.0	1.0	True
1445.206	0.0	2Suff RealStemNW	25	1445206	affectorship	0.0	0.0	True
1446.506	0.0	2Suff PseudoStemNW	24	1446506	coppentator	0.0	0.0	True
1447.706	0.0	0Suff NW	4	1447706	cossete	0.0	0.0	True
1448.873	0.0	1Suff PseudoStemNW	14	1448873	coppentate	0.0	1.0	False
1450.541	0.0	2Suff RealStemNW	25	1450541	friendionist	0.0	1.0	False
1451.958	0.0	2Suff RealStemNW	25	1451958	dramatilessly	0.0	1.0	False
1453.391	0.0	2Suff PseudoStemNW	24	1453391	chirdishness	0.0	1.0	False
1455.084	0.0	2Suff PseudoStemNW	24	1455084	rerational	0.0	1.0	False
