onset	duration	trial_type	value	sample	stimulus	is_word	response	correct
40.022	0.0	0Suff w/o Lat.	2	40022	clinic	1.0	0.0	False
41.056	0.0	0Suff NW	4	41056	haint	0.0	1.0	False
42.031	0.0	1Suff w/o Lat.	12	42031	broker	1.0	0.0	False
43.273	0.0	1Suff PseudoStemNW	14	43273	janiable	0.0	1.0	False
44.274	0.0	2Suff PseudoStemNW	24	44274	darberously	0.0	1.0	False
45.507	0.0	2Suff w/o Lat.	22	45507	continuously	1.0	0.0	False
46.641	0.0	1Suff w/o Lat.	12	46641	helpless	1.0	0.0	False
47.533	0.0	0Suff NW	4	47533	tablic	0.0	1.0	False
48.625	0.0	1Suff w/ Lat.	11	48625	objection	1.0	0.0	False
49.634	0.0	2Suff w/o Lat.	22	49634	vaccination	1.0	0.0	False
50.709	0.0	2Suff w/o Lat.	22	50709	critically	1.0	0.0	False
51.693	0.0	2Suff RealStemNW	25	51693	actional	0.0	0.0	True
52.726	0.0	2Suff w/o Lat.	22	52726	artfully	1.0	0.0	False
54.21	0.0	2Suff w/o Lat.	22	54210	spirituality	1.0	0.0	False
55.294	0.0	1Suff PseudoStemNW	14	55294	cutfural	0.0	1.0	False
56.586	0.0	1Suff PseudoStemNW	14	56586	vetcinate	0.0	1.0	False
57.686	0.0	1Suff PseudoStemNW	14	57686	awnful	0.0	1.0	False
59.212	0.0	0Suff NW	4	59212	cheher	0.0	1.0	False
60.279	0.0	0Suff w/o Lat.	2	60279	slip	1.0	0.0	False
61.404	0.0	0Suff w/ Lat.	1	61404	compose	1.0	0.0	False
62.404	0.0	2Suff PseudoStemNW	24	62404	rinchfully	0.0	1.0	False
63.655	0.0	1Suff RealStemNW	15	63655	magicic	0.0	1.0	False
65.23	0.0	1Suff PseudoStemNW	14	65230	mocondary	0.0	1.0	False
66.364	0.0	0Suff w/o Lat.	2	66364	cause	1.0	0.0	False
67.406	0.0	1Suff w/o Lat.	12	67406	careless	1.0	0.0	False
68.556	0.0	2Suff Composite	23	68556	probation	1.0	0.0	False
69.673	0.0	2Suff PseudoStemNW	24	69673	healtily	0.0	1.0	False
71.199	0.0	2Suff PseudoStemNW	24	71199	feamfully	0.0	1.0	False
72.516	0.0	0Suff NW	4	72516	feal	0.0	1.0	False
73.791	0.0	1Suff PseudoStemNW	14	73791	darberous	0.0	1.0	False
75.042	0.0	1Suff RealStemNW	15	75042	conclusful	0.0	1.0	False
76.6	0.0	2Suff RealStemNW	25	76600	virtuerize	0.0	1.0	False
78.268	0.0	2Suff RealStemNW	25	78268	ordinfully	0.0	1.0	False
80.018	0.0	1Suff RealStemNW	15	80018	kinden	0.0	1.0	False
81.56	0.0	0Suff w/o Lat.	2	81560	end	1.0	0.0	False
83.102	0.0	0Suff NW	4	83102	sothod	0.0	0.0	True
84.536	0.0	2Suff w/o Lat.	22	84536	commercialism	1.0	0.0	False
86.745	0.0	2Suff RealStemNW	25	86745	variality	0.0	1.0	False
88.396	0.0	0Suff NW	4	88396	colliff	0.0	1.0	False
89.763	0.0	1Suff w/o Lat.	12	89763	magical	1.0	0.0	False
91.113	0.0	2Suff RealStemNW	25	91113	legalability	0.0	0.0	True
92.772	0.0	1Suff RealStemNW	15	92772	flexless	0.0	1.0	False
93.947	0.0	1Suff w/o Lat.	12	93947	modernist	1.0	0.0	False
95.006	0.0	0Suff w/o Lat.	2	95006	dread	1.0	0.0	False
96.231	0.0	1Suff RealStemNW	15	96231	perfectate	0.0	0.0	True
97.874	0.0	0Suff NW	4	97874	bruke	0.0	1.0	False
98.982	0.0	2Suff w/o Lat.	22	98982	brokerage	1.0	1.0	True
100.341	0.0	1Suff PseudoStemNW	14	100341	lokely	0.0	1.0	False
101.975	0.0	0Suff w/ Lat.	1	101975	perfect	1.0	0.0	False
103.083	0.0	0Suff NW	4	103083	cronition	0.0	1.0	False
104.684	0.0	2Suff PseudoStemNW	24	104684	hettlessness	0.0	1.0	False
106.101	0.0	0Suff w/o Lat.	2	106101	admire	1.0	0.0	False
107.135	0.0	2Suff w/ Lat.	21	107135	perfectionism	1.0	0.0	False
108.327	0.0	0Suff w/o Lat.	2	108327	vary	1.0	0.0	False
109.635	0.0	2Suff w/o Lat.	22	109635	selflessness	1.0	0.0	False
111.119	0.0	1Suff RealStemNW	15	111119	tacticic	0.0	1.0	False
112.278	0.0	0Suff w/ Lat.	1	112278	inspire	1.0	0.0	False
113.662	0.0	0Suff NW	4	113662	massien	0.0	1.0	False
114.745	0.0	1Suff w/o Lat.	12	114745	creative	1.0	0.0	False
115.804	0.0	1Suff PseudoStemNW	14	115804	gunderful	0.0	1.0	False
117.096	0.0	2Suff RealStemNW	25	117096	penalilessly	0.0		False
119.497	0.0	1Suff w/o Lat.	12	119497	monumental	1.0	0.0	False
120.497	0.0	1Suff PseudoStemNW	14	120497	nolfy	0.0	1.0	False
121.522	0.0	0Suff NW	4	121522	exprede	0.0	1.0	False
122.581	0.0	1Suff w/o Lat.	12	122581	abolition	1.0	0.0	False
123.757	0.0	1Suff RealStemNW	15	123757	collectful	0.0	0.0	True
125.015	0.0	2Suff w/o Lat.	22	125015	commercially	1.0	0.0	False
126.516	0.0	0Suff NW	4	126516	pums	0.0	1.0	False
127.458	0.0	0Suff w/o Lat.	2	127458	mercy	1.0	0.0	False
128.6	0.0	1Suff w/o Lat.	12	128600	hasty	1.0	0.0	False
129.667	0.0	2Suff w/o Lat.	22	129667	variously	1.0	0.0	False
130.834	0.0	0Suff w/o Lat.	2	130834	wonder	1.0	0.0	False
131.884	0.0	1Suff w/o Lat.	12	131884	artful	1.0	0.0	False
132.918	0.0	0Suff w/o Lat.	2	132918	greed	1.0	0.0	False
134.01	0.0	2Suff RealStemNW	25	134010	synchronilessly	0.0	0.0	True
136.319	0.0	2Suff w/o Lat.	22	136319	nationalist	1.0	0.0	False
137.419	0.0	1Suff w/ Lat.	11	137419	inspiration	1.0	0.0	False
138.394	0.0	1Suff w/o Lat.	12	138394	lusty	1.0	0.0	False
139.661	0.0	1Suff w/o Lat.	12	139661	humanist	1.0	0.0	False
140.878	0.0	2Suff w/o Lat.	22	140878	modernistic	1.0	0.0	False
141.854	0.0	0Suff w/o Lat.	2	141854	power	1.0	0.0	False
142.696	0.0	1Suff w/o Lat.	12	142696	customary	1.0	0.0	False
144.038	0.0	2Suff PseudoStemNW	24	144038	andezation	0.0	0.0	True
145.146	0.0	2Suff PseudoStemNW	24	145146	booftifully	0.0	1.0	False
147.122	0.0	0Suff w/o Lat.	2	147122	flex	1.0	0.0	False
148.439	0.0	2Suff RealStemNW	25	148439	hastery	0.0	1.0	False
149.998	0.0	1Suff RealStemNW	15	149998	institutate	0.0	0.0	True
151.957	0.0	2Suff PseudoStemNW	24	151957	cladsification	0.0	1.0	False
153.266	0.0	1Suff RealStemNW	15	153266	selfory	0.0	1.0	False
154.666	0.0	0Suff NW	4	154666	darber	0.0	1.0	False
155.641	0.0	1Suff w/o Lat.	12	155641	measurable	1.0	0.0	False
157.083	0.0	0Suff w/o Lat.	2	157083	self	1.0	0.0	False
158.042	0.0	2Suff RealStemNW	25	158042	effortiously	0.0	1.0	False
159.568	0.0	2Suff RealStemNW	25	159568	ownmental	0.0	1.0	False
160.926	0.0	1Suff PseudoStemNW	14	160926	simnify	0.0	1.0	False
162.035	0.0	2Suff w/ Lat.	21	162035	effectiveness	1.0	0.0	False
163.285	0.0	1Suff PseudoStemNW	14	163285	ludsy	0.0	1.0	False
164.461	0.0	1Suff w/o Lat.	12	164461	courageous	1.0	0.0	False
165.528	0.0	1Suff w/o Lat.	12	165528	stylist	1.0	0.0	False
166.661	0.0	1Suff w/ Lat.	11	166661	provision	1.0	0.0	False
167.645	0.0	0Suff w/o Lat.	2	167645	own	1.0	0.0	False
168.879	0.0	2Suff w/o Lat.	22	168879	sensibility	1.0	0.0	False
169.929	0.0	1Suff w/o Lat.	12	169929	relentless	1.0	0.0	False
171.129	0.0	1Suff w/o Lat.	12	171129	beautiful	1.0	0.0	False
172.163	0.0	1Suff w/o Lat.	12	172163	modulate	1.0	0.0	False
173.455	0.0	2Suff w/o Lat.	22	173455	abolitionist	1.0	0.0	False
174.555	0.0	2Suff w/o Lat.	22	174555	prophetically	1.0	0.0	False
175.831	0.0	2Suff RealStemNW	25	175831	alterlessly	0.0	1.0	False
177.498	0.0	2Suff w/o Lat.	22	177498	tirelessly	1.0	0.0	False
178.79	0.0	0Suff NW	4	178790	creric	0.0	1.0	False
180.015	0.0	2Suff PseudoStemNW	24	180015	pipsonally	0.0	1.0	False
181.316	0.0	1Suff w/o Lat.	12	181316	lonely	1.0	0.0	False
182.558	0.0	2Suff RealStemNW	25	182558	instinctfully	0.0	0.0	True
183.858	0.0	2Suff w/o Lat.	22	183858	measurably	1.0	0.0	False
185.067	0.0	2Suff w/o Lat.	22	185067	selectively	1.0	0.0	False
186.334	0.0	2Suff w/o Lat.	22	186334	helpfully	1.0	0.0	False
187.551	0.0	2Suff Composite	23	187551	limitation	1.0	0.0	False
188.977	0.0	0Suff NW	4	188977	gunder	0.0	1.0	False
190.177	0.0	2Suff PseudoStemNW	24	190177	utiethation	0.0	1.0	False
243.718	0.0	1Suff RealStemNW	15	243718	preferless	0.0	1.0	False
245.494	0.0	0Suff w/o Lat.	2	245494	victim	1.0	0.0	False
246.494	0.0	0Suff NW	4	246494	selve	0.0	1.0	False
247.97	0.0	1Suff w/ Lat.	11	247970	excessive	1.0	0.0	False
249.287	0.0	1Suff PseudoStemNW	14	249287	lumsy	0.0	1.0	False
250.912	0.0	1Suff RealStemNW	15	250912	cyclal	0.0	1.0	False
252.521	0.0	1Suff PseudoStemNW	14	252521	obwertive	0.0	1.0	False
254.163	0.0	1Suff PseudoStemNW	14	254163	londly	0.0	1.0	False
255.83	0.0	2Suff PseudoStemNW	24	255830	grearively	0.0	1.0	False
257.481	0.0	0Suff NW	4	257481	effern	0.0	1.0	False
259.131	0.0	2Suff PseudoStemNW	24	259131	arpivity	0.0	1.0	False
260.599	0.0	2Suff w/ Lat.	21	260599	explosively	1.0	0.0	False
262.107	0.0	1Suff PseudoStemNW	14	262107	booftiful	0.0	1.0	False
263.591	0.0	2Suff RealStemNW	25	263591	humanional	0.0	1.0	False
265.125	0.0	2Suff w/o Lat.	22	265125	herbalist	1.0	0.0	False
266.876	0.0	0Suff w/o Lat.	2	266876	expand	1.0	0.0	False
268.309	0.0	1Suff w/o Lat.	12	268309	comical	1.0	0.0	False
269.818	0.0	0Suff w/o Lat.	2	269818	create	1.0	0.0	False
271.294	0.0	2Suff w/o Lat.	22	271294	legalization	1.0	0.0	False
272.744	0.0	0Suff w/ Lat.	1	272744	provide	1.0	0.0	False
274.144	0.0	2Suff PseudoStemNW	24	274144	rincheousness	0.0	1.0	False
275.612	0.0	1Suff RealStemNW	15	275612	careive	0.0	1.0	False
277.162	0.0	1Suff RealStemNW	15	277162	fertilist	0.0	0.0	True
278.729	0.0	1Suff RealStemNW	15	278729	passionion	0.0	1.0	False
280.321	0.0	1Suff w/o Lat.	12	280321	kindly	1.0	0.0	False
281.73	0.0	2Suff PseudoStemNW	24	281730	retendlessly	0.0	1.0	False
283.431	0.0	1Suff w/o Lat.	12	283431	joyous	1.0	1.0	True
284.839	0.0	2Suff w/o Lat.	22	284839	masterfully	1.0	0.0	False
286.165	0.0	1Suff w/o Lat.	12	286165	merciless	1.0	0.0	False
287.807	0.0	0Suff NW	4	287807	obwert	0.0	1.0	False
289.049	0.0	0Suff w/o Lat.	2	289049	respect	1.0	0.0	False
290.241	0.0	2Suff PseudoStemNW	24	290241	mocondarily	0.0	1.0	False
291.575	0.0	1Suff w/o Lat.	12	291575	mournful	1.0	0.0	False
293.167	0.0	1Suff w/o Lat.	12	293167	masterful	1.0	0.0	False
294.426	0.0	1Suff RealStemNW	15	294426	tireable	0.0	1.0	False
295.951	0.0	0Suff NW	4	295951	efforn	0.0	1.0	False
296.985	0.0	2Suff PseudoStemNW	24	296985	conwodential	0.0	1.0	False
298.168	0.0	1Suff RealStemNW	15	298168	nationic	0.0	1.0	False
299.411	0.0	0Suff w/o Lat.	2	299411	human	1.0	0.0	False
300.461	0.0	2Suff w/o Lat.	22	300461	luckily	1.0	0.0	False
301.653	0.0	2Suff PseudoStemNW	24	301653	ludsily	0.0	1.0	False
302.753	0.0	2Suff w/o Lat.	22	302753	uselessly	1.0	0.0	False
304.254	0.0	0Suff NW	4	304254	greard	0.0	1.0	False
305.337	0.0	2Suff PseudoStemNW	24	305337	flivitually	0.0	1.0	False
306.679	0.0	1Suff RealStemNW	15	306679	powerive	0.0	1.0	False
307.913	0.0	1Suff PseudoStemNW	14	307913	esressive	0.0	1.0	False
309.439	0.0	0Suff w/ Lat.	1	309439	presume	1.0	0.0	False
310.722	0.0	1Suff PseudoStemNW	14	310722	moolurable	0.0	1.0	False
312.281	0.0	1Suff w/o Lat.	12	312281	artist	1.0	0.0	False
313.49	0.0	0Suff NW	4	313490	loke	0.0	1.0	False
314.807	0.0	2Suff RealStemNW	25	314807	continliness	0.0	1.0	False
316.674	0.0	1Suff w/o Lat.	12	316674	falsify	1.0	0.0	False
318.525	0.0	2Suff PseudoStemNW	24	318525	griedily	0.0	1.0	False
319.934	0.0	1Suff w/ Lat.	11	319934	exception	1.0	0.0	False
321.151	0.0	2Suff RealStemNW	25	321151	hierarchally	0.0	0.0	True
323.268	0.0	1Suff w/ Lat.	11	323268	expression	1.0	0.0	False
324.585	0.0	2Suff RealStemNW	25	324585	civilability	0.0	0.0	True
326.944	0.0	0Suff NW	4	326944	feam	0.0	1.0	False
328.036	0.0	2Suff Composite	23	328036	penalization	1.0	0.0	False
329.636	0.0	2Suff PseudoStemNW	24	329636	melidification	0.0	0.0	True
331.42	0.0	0Suff w/o Lat.	2	331420	pure	1.0	0.0	False
332.696	0.0	2Suff w/o Lat.	22	332696	expansiveness	1.0	0.0	False
334.105	0.0	2Suff w/o Lat.	22	334105	lustily	1.0	0.0	False
335.522	0.0	2Suff w/o Lat.	22	335522	culturally	1.0	0.0	False
336.664	0.0	2Suff PseudoStemNW	24	336664	jistification	0.0	1.0	False
338.139	0.0	1Suff w/ Lat.	11	338139	explosive	1.0	0.0	False
339.189	0.0	2Suff w/o Lat.	22	339189	suitability	1.0	0.0	False
341.04	0.0	1Suff w/o Lat.	12	341040	merciful	1.0	0.0	False
342.065	0.0	0Suff w/o Lat.	2	342065	prophet	1.0	0.0	False
343.132	0.0	0Suff NW	4	343132	retend	0.0	1.0	False
344.399	0.0	1Suff w/o Lat.	12	344399	existence	1.0	0.0	False
346.075	0.0	2Suff RealStemNW	25	346075	victimilessly	0.0		False
348.484	0.0	1Suff w/ Lat.	11	348484	effective	1.0	0.0	False
349.868	0.0	1Suff RealStemNW	15	349868	helpive	0.0	1.0	False
351.143	0.0	1Suff w/ Lat.	11	351143	conductive	1.0	0.0	False
352.377	0.0	2Suff PseudoStemNW	24	352377	hettlessly	0.0	1.0	False
353.652	0.0	2Suff RealStemNW	25	353652	presumator	0.0	1.0	False
355.286	0.0	0Suff NW	4	355286	fortord	0.0	1.0	False
357.587	0.0	1Suff w/o Lat.	12	357587	procedure	1.0	0.0	False
359.087	0.0	0Suff NW	4	359087	boofty	0.0	1.0	False
361.196	0.0	0Suff w/o Lat.	2	361196	breath	1.0	0.0	False
362.338	0.0	2Suff PseudoStemNW	24	362338	ewilsential	0.0	1.0	False
363.539	0.0	1Suff w/o Lat.	12	363539	noticeable	1.0	0.0	False
365.114	0.0	2Suff RealStemNW	25	365114	sensfulness	0.0	1.0	False
366.489	0.0	2Suff w/o Lat.	22	366489	carelessness	1.0	0.0	False
368.148	0.0	1Suff w/o Lat.	12	368148	victimize	1.0	0.0	False
369.224	0.0	0Suff NW	4	369224	tist	0.0	1.0	False
370.332	0.0	1Suff RealStemNW	15	370332	assertful	0.0	1.0	False
371.474	0.0	2Suff Composite	23	371474	annexation	1.0	1.0	True
372.775	0.0	2Suff RealStemNW	25	372775	valufully	0.0	1.0	False
374.192	0.0	0Suff w/o Lat.	2	374192	second	1.0	0.0	False
375.459	0.0	1Suff PseudoStemNW	14	375459	herfal	0.0	1.0	False
376.893	0.0	1Suff RealStemNW	15	376893	noticeless	0.0	0.0	True
378.802	0.0	2Suff PseudoStemNW	24	378802	coyimally	0.0	1.0	False
379.877	0.0	2Suff RealStemNW	25	379877	foolality	0.0	1.0	False
381.994	0.0	2Suff Composite	23	381994	valuation	1.0	0.0	False
383.586	0.0	0Suff w/ Lat.	1	383586	intend	1.0	0.0	False
385.045	0.0	2Suff w/o Lat.	22	385045	righteousness	1.0	0.0	False
386.229	0.0	1Suff RealStemNW	15	386229	fearive	0.0	1.0	False
387.554	0.0	2Suff w/ Lat.	21	387554	exclusiveness	1.0	0.0	False
389.347	0.0	2Suff w/o Lat.	22	389347	creativity	1.0	0.0	False
390.405	0.0	1Suff w/ Lat.	11	390405	intention	1.0	0.0	False
391.506	0.0	2Suff RealStemNW	25	391506	commerceional	0.0	1.0	False
393.106	0.0	0Suff w/ Lat.	1	393106	except	1.0	0.0	False
394.365	0.0	1Suff w/o Lat.	12	394365	selective	1.0	0.0	False
395.448	0.0	0Suff NW	4	395448	simn	0.0	1.0	False
396.557	0.0	0Suff NW	4	396557	cank	0.0	1.0	False
397.732	0.0	2Suff PseudoStemNW	24	397732	contitually	0.0	1.0	False
399.066	0.0	0Suff NW	4	399066	esress	0.0	1.0	False
400.208	0.0	2Suff RealStemNW	25	400208	commerceical	0.0	1.0	False
401.6	0.0	1Suff PseudoStemNW	14	401600	comburer	0.0	1.0	False
403.092	0.0	2Suff w/o Lat.	22	403092	activate	1.0	0.0	False
404.218	0.0	2Suff PseudoStemNW	24	404218	arresogical	0.0	1.0	False
405.451	0.0	1Suff w/o Lat.	12	405451	needless	1.0	0.0	False
406.585	0.0	0Suff w/o Lat.	2	406585	relent	1.0	0.0	False
407.811	0.0	2Suff RealStemNW	25	407811	fooliveness	0.0	1.0	False
409.186	0.0	0Suff w/o Lat.	2	409186	danger	1.0	0.0	False
410.603	0.0	1Suff RealStemNW	15	410603	merciable	0.0	1.0	False
411.987	0.0	2Suff w/o Lat.	22	411987	cyclical	1.0	0.0	False
423.74	0.0	0Suff w/o Lat.	2	423740	assert	1.0	0.0	False
424.941	0.0	2Suff PseudoStemNW	24	424941	foptration	0.0	1.0	False
426.25	0.0	1Suff w/o Lat.	12	426250	selfish	1.0	0.0	False
427.383	0.0	0Suff w/ Lat.	1	427383	explode	1.0	0.0	False
428.525	0.0	2Suff PseudoStemNW	24	428525	tistlessly	0.0	1.0	False
429.734	0.0	0Suff NW	4	429734	gried	0.0	1.0	False
430.909	0.0	1Suff PseudoStemNW	14	430909	selvual	0.0	1.0	False
432.135	0.0	0Suff NW	4	432135	hett	0.0	1.0	False
433.393	0.0	2Suff RealStemNW	25	433393	commerceantly	0.0	1.0	False
434.702	0.0	0Suff w/o Lat.	2	434702	passion	1.0	0.0	False
436.161	0.0	1Suff PseudoStemNW	14	436161	arbument	0.0	1.0	False
437.62	0.0	0Suff w/o Lat.	2	437620	continue	1.0	0.0	False
438.77	0.0	2Suff RealStemNW	25	438770	customantly	0.0	1.0	False
440.329	0.0	2Suff PseudoStemNW	24	440329	comfernably	0.0	1.0	False
441.613	0.0	2Suff RealStemNW	25	441613	purifilessly	0.0	1.0	False
442.905	0.0	1Suff w/o Lat.	12	442905	helpful	1.0	0.0	False
444.088	0.0	2Suff PseudoStemNW	24	444088	faicification	0.0	1.0	False
445.239	0.0	2Suff PseudoStemNW	24	445239	comburation	0.0	1.0	False
446.739	0.0	0Suff NW	4	446739	slex	0.0	1.0	False
447.764	0.0	2Suff w/o Lat.	22	447764	powerfully	1.0	0.0	False
448.957	0.0	1Suff w/o Lat.	12	448957	national	1.0	0.0	False
449.948	0.0	1Suff PseudoStemNW	14	449948	prosodure	0.0	1.0	False
451.116	0.0	1Suff PseudoStemNW	14	451116	bleadful	0.0	1.0	False
452.608	0.0	2Suff w/o Lat.	22	452608	argumentative	1.0	0.0	False
453.758	0.0	1Suff PseudoStemNW	14	453758	contituous	0.0	1.0	False
455.05	0.0	0Suff w/o Lat.	2	455050	monument	1.0	0.0	False
456.292	0.0	0Suff NW	4	456292	jany	0.0	1.0	False
457.309	0.0	0Suff NW	4	457309	jist	0.0	1.0	False
458.309	0.0	1Suff w/o Lat.	12	458309	momentary	1.0	0.0	False
459.743	0.0	1Suff RealStemNW	15	459743	creatful	0.0	0.0	True
460.869	0.0	2Suff w/ Lat.	21	460869	objectionable	1.0	1.0	True
462.769	0.0	0Suff w/o Lat.	2	462769	fear	1.0	0.0	False
463.769	0.0	0Suff w/o Lat.	2	463769	region	1.0	0.0	False
465.011	0.0	0Suff w/o Lat.	2	465011	critic	1.0	0.0	False
466.145	0.0	1Suff RealStemNW	15	466145	relentable	0.0	1.0	False
467.996	0.0	0Suff w/o Lat.	2	467996	lust	1.0	0.0	False
468.938	0.0	1Suff PseudoStemNW	14	468938	coatageous	0.0	1.0	False
470.388	0.0	2Suff w/o Lat.	22	470388	carelessly	1.0	0.0	False
471.555	0.0	2Suff PseudoStemNW	24	471555	cheherably	0.0	1.0	False
473.072	0.0	2Suff RealStemNW	25	473072	classally	0.0	1.0	False
474.231	0.0	2Suff PseudoStemNW	24	474231	arbumentative	0.0	1.0	False
475.973	0.0	0Suff NW	4	475973	omlic	0.0	1.0	False
477.315	0.0	0Suff w/o Lat.	2	477315	fortune	1.0	0.0	False
479.291	0.0	1Suff PseudoStemNW	14	479291	atstartive	0.0	1.0	False
480.458	0.0	0Suff w/o Lat.	2	480458	culture	1.0	0.0	False
481.883	0.0	0Suff NW	4	481883	franic	0.0	1.0	False
483.792	0.0	2Suff RealStemNW	25	483792	heroliness	0.0	1.0	False
485.593	0.0	1Suff w/o Lat.	12	485593	fertilize	1.0	0.0	False
487.327	0.0	2Suff w/o Lat.	22	487327	monumentally	1.0	0.0	False
488.819	0.0	0Suff NW	4	488819	traphet	0.0	1.0	False
490.161	0.0	0Suff NW	4	490161	sarument	0.0	1.0	False
491.378	0.0	0Suff NW	4	491378	nolfs	0.0	1.0	False
492.662	0.0	0Suff NW	4	492662	connurt	0.0	1.0	False
493.954	0.0	2Suff PseudoStemNW	24	493954	gunderfully	0.0	1.0	False
495.671	0.0	1Suff w/o Lat.	12	495671	respective	1.0	0.0	False
496.855	0.0	2Suff Composite	23	496855	paradoxical	1.0	0.0	False
498.163	0.0	2Suff w/o Lat.	22	498163	regionally	1.0	0.0	False
499.647	0.0	0Suff NW	4	499647	atstart	0.0	1.0	False
500.831	0.0	0Suff NW	4	500831	nead	0.0	1.0	False
502.098	0.0	1Suff RealStemNW	15	502098	foolory	0.0	0.0	True
503.932	0.0	2Suff RealStemNW	25	503932	stylional	0.0	1.0	False
505.224	0.0	1Suff w/o Lat.	12	505224	legalize	1.0	0.0	False
506.332	0.0	2Suff w/o Lat.	22	506332	significant	1.0	0.0	False
507.608	0.0	1Suff RealStemNW	15	507608	modernate	0.0	0.0	True
509.35	0.0	1Suff w/o Lat.	12	509350	selfless	1.0	0.0	False
510.342	0.0	0Suff w/o Lat.	2	510342	love	1.0	0.0	False
511.617	0.0	2Suff PseudoStemNW	24	511617	conspodively	0.0	1.0	False
513.093	0.0	2Suff w/o Lat.	22	513093	ceaselessly	1.0	0.0	False
514.777	0.0	2Suff w/o Lat.	22	514777	justification	1.0	0.0	False
515.919	0.0	1Suff w/o Lat.	12	515919	lovely	1.0	0.0	False
517.194	0.0	0Suff w/o Lat.	2	517194	moment	1.0	0.0	False
518.561	0.0	2Suff w/o Lat.	22	518561	collectively	1.0	0.0	False
519.853	0.0	1Suff RealStemNW	15	519853	mercyive	0.0	1.0	False
521.095	0.0	2Suff w/o Lat.	22	521095	carefully	1.0	0.0	False
522.446	0.0	2Suff PseudoStemNW	24	522446	flivituality	0.0	1.0	False
523.746	0.0	2Suff w/o Lat.	22	523746	civilization	1.0	0.0	False
525.097	0.0	2Suff w/o Lat.	22	525097	confidential	1.0	0.0	False
526.514	0.0	0Suff NW	4	526514	freat	0.0	1.0	False
527.972	0.0	1Suff w/o Lat.	12	527972	cyclic	1.0	0.0	False
529.231	0.0	2Suff RealStemNW	25	529231	brokiness	0.0	1.0	False
530.49	0.0	0Suff w/o Lat.	2	530490	attend	1.0	0.0	False
531.807	0.0	0Suff NW	4	531807	hunen	0.0	1.0	False
533.366	0.0	1Suff PseudoStemNW	14	533366	ewilsence	0.0	1.0	False
534.9	0.0	1Suff PseudoStemNW	14	534900	inflisation	0.0	1.0	False
536.517	0.0	1Suff w/o Lat.	12	536517	vaccinate	1.0	0.0	False
538.159	0.0	2Suff RealStemNW	25	538159	lustery	0.0	0.0	True
539.626	0.0	2Suff Composite	23	539626	purification	1.0	0.0	False
541.518	0.0	1Suff w/o Lat.	12	541518	assertive	1.0	0.0	False
542.794	0.0	2Suff Composite	23	542794	victimization	1.0	0.0	False
544.077	0.0	0Suff w/o Lat.	2	544077	courage	1.0	0.0	False
545.353	0.0	1Suff w/o Lat.	12	545353	greedy	1.0	0.0	False
546.712	0.0	0Suff NW	4	546712	pipson	0.0	1.0	False
548.529	0.0	2Suff w/o Lat.	22	548529	comparatively	1.0	0.0	False
549.721	0.0	2Suff RealStemNW	25	549721	expansishness	0.0	1.0	False
551.313	0.0	2Suff PseudoStemNW	24	551313	paragewical	0.0	1.0	False
552.805	0.0	1Suff w/o Lat.	12	552805	regional	1.0	0.0	False
554.247	0.0	2Suff Composite	23	554247	unification	1.0	0.0	False
555.898	0.0	0Suff NW	4	555898	indlidst	0.0	1.0	False
557.065	0.0	2Suff Composite	23	557065	embarkation	1.0	1.0	True
558.524	0.0	0Suff NW	4	558524	conwode	0.0	1.0	False
559.974	0.0	0Suff NW	4	559974	awn	0.0	1.0	False
561.241	0.0	1Suff PseudoStemNW	14	561241	broler	0.0	1.0	False
562.508	0.0	1Suff PseudoStemNW	14	562508	awnist	0.0	1.0	False
563.808	0.0	1Suff w/o Lat.	12	563808	dangerous	1.0	0.0	False
564.976	0.0	0Suff NW	4	564976	navoun	0.0	1.0	False
566.243	0.0	0Suff w/o Lat.	2	566243	person	1.0	0.0	False
567.768	0.0	1Suff PseudoStemNW	14	567768	brukal	0.0	1.0	False
569.027	0.0	2Suff w/o Lat.	22	569027	attentively	1.0	0.0	False
570.569	0.0	1Suff RealStemNW	15	570569	admirless	0.0	1.0	False
571.911	0.0	0Suff w/o Lat.	2	571911	measure	1.0	0.0	False
573.128	0.0	1Suff w/o Lat.	12	573128	effortless	1.0	0.0	False
574.42	0.0	1Suff PseudoStemNW	14	574420	recrernive	0.0	1.0	False
575.587	0.0	1Suff w/o Lat.	12	575587	tactical	1.0	1.0	True
576.888	0.0	2Suff w/o Lat.	22	576888	truthfulness	1.0	0.0	False
578.238	0.0	2Suff RealStemNW	25	578238	useiveness	0.0	1.0	False
579.522	0.0	0Suff w/o Lat.	2	579522	abolish	1.0	0.0	False
580.989	0.0	0Suff NW	4	580989	inflise	0.0	1.0	False
582.147	0.0	2Suff RealStemNW	25	582147	vulgarilessly	0.0	1.0	False
583.581	0.0	1Suff w/o Lat.	12	583581	hearty	1.0	1.0	True
625.511	0.0	0Suff NW	4	625511	murpy	0.0	1.0	False
626.936	0.0	1Suff w/o Lat.	12	626936	symbolic	1.0	0.0	False
627.97	0.0	0Suff NW	4	627970	cedil	0.0	1.0	False
629.012	0.0	1Suff w/o Lat.	12	629012	continuous	1.0	0.0	False
630.062	0.0	2Suff w/ Lat.	21	630062	exclusively	1.0	0.0	False
631.354	0.0	2Suff w/o Lat.	22	631354	beautifully	1.0	0.0	False
632.48	0.0	0Suff w/o Lat.	2	632480	commerce	1.0	0.0	False
633.755	0.0	2Suff Composite	23	633755	classification	1.0	0.0	False
634.897	0.0	2Suff w/o Lat.	22	634897	traditionally	1.0	0.0	False
636.197	0.0	2Suff w/o Lat.	22	636197	fortunately	1.0	0.0	False
637.414	0.0	2Suff w/o Lat.	22	637414	suitably	1.0	0.0	False
638.598	0.0	2Suff PseudoStemNW	24	638598	pipsonalize	0.0	1.0	False
639.79	0.0	2Suff PseudoStemNW	24	639790	trithfully	0.0	1.0	False
640.991	0.0	0Suff NW	4	640991	arbub	0.0	1.0	False
642.216	0.0	2Suff PseudoStemNW	24	642216	movectization	0.0	1.0	False
643.3	0.0	1Suff w/o Lat.	12	643300	active	1.0	0.0	False
644.342	0.0	1Suff w/ Lat.	11	644342	objective	1.0	0.0	False
645.525	0.0	0Suff NW	4	645525	inglinite	0.0	1.0	False
646.642	0.0	1Suff RealStemNW	15	646642	commerceic	0.0	1.0	False
647.784	0.0	2Suff w/o Lat.	22	647784	spiritually	1.0	0.0	False
648.868	0.0	2Suff RealStemNW	25	648868	inspiratality	0.0	1.0	False
650.135	0.0	2Suff w/o Lat.	22	650135	ownership	1.0	1.0	True
651.194	0.0	1Suff PseudoStemNW	14	651194	jokous	0.0	1.0	False
652.377	0.0	1Suff PseudoStemNW	14	652377	rincheous	0.0	1.0	False
653.819	0.0	2Suff w/o Lat.	22	653819	industrialist	1.0	0.0	False
655.295	0.0	1Suff w/o Lat.	12	655295	dreadful	1.0	0.0	False
656.437	0.0	0Suff NW	4	656437	arp	0.0	1.0	False
657.429	0.0	2Suff PseudoStemNW	24	657429	hettfully	0.0	1.0	False
658.546	0.0	0Suff NW	4	658546	faice	0.0	1.0	False
659.763	0.0	2Suff w/o Lat.	22	659763	respectively	1.0	0.0	False
661.005	0.0	0Suff w/o Lat.	2	661005	class	1.0	0.0	False
662.03	0.0	0Suff w/o Lat.	2	662030	kind	1.0	0.0	False
663.172	0.0	1Suff RealStemNW	15	663172	causic	0.0	1.0	False
664.806	0.0	2Suff Composite	23	664806	solipsistic	1.0	1.0	True
665.965	0.0	2Suff PseudoStemNW	24	665965	shactener	0.0	1.0	False
667.299	0.0	2Suff w/o Lat.	22	667299	mercifully	1.0	1.0	True
669.349	0.0	2Suff w/o Lat.	22	669349	virtuosity	1.0	1.0	True
671.283	0.0	2Suff RealStemNW	25	671283	couragliness	0.0	1.0	False
673.242	0.0	1Suff w/o Lat.	12	673242	expansive	1.0	0.0	False
675.301	0.0	1Suff PseudoStemNW	14	675301	healty	0.0	1.0	False
676.66	0.0	2Suff w/o Lat.	22	676660	symbolically	1.0	0.0	False
677.852	0.0	1Suff PseudoStemNW	14	677852	hainy	0.0	1.0	False
679.186	0.0	2Suff RealStemNW	25	679186	flexfulness	0.0	1.0	False
680.444	0.0	0Suff NW	4	680444	combure	0.0	1.0	False
681.67	0.0	2Suff w/ Lat.	21	681670	conductivity	1.0	0.0	False
683.254	0.0	0Suff NW	4	683254	exfapt	0.0	1.0	False
684.662	0.0	2Suff RealStemNW	25	684662	nullifilessly	0.0	1.0	False
686.304	0.0	0Suff w/o Lat.	2	686304	tactic	1.0	0.0	False
687.905	0.0	2Suff w/o Lat.	22	687905	variability	1.0	0.0	False
689.439	0.0	1Suff w/o Lat.	12	689439	argument	1.0	0.0	False
690.764	0.0	2Suff RealStemNW	25	690764	industriantly	0.0	1.0	False
692.415	0.0	0Suff NW	4	692415	coyim	0.0	1.0	False
694.007	0.0	2Suff PseudoStemNW	24	694007	eschessionist	0.0	1.0	False
695.774	0.0	0Suff NW	4	695774	meleft	0.0	1.0	False
697.491	0.0	2Suff w/o Lat.	22	697491	relentlessly	1.0	0.0	False
698.975	0.0	1Suff w/o Lat.	12	698975	brutal	1.0	0.0	False
700.676	0.0	2Suff w/o Lat.	22	700676	dreadfully	1.0	0.0	False
702.176	0.0	2Suff RealStemNW	25	702176	senseiously	0.0	1.0	False
703.66	0.0	1Suff w/o Lat.	12	703660	industrial	1.0	0.0	False
705.06	0.0	1Suff w/ Lat.	11	705060	institution	1.0	0.0	False
706.411	0.0	0Suff NW	4	706411	blead	0.0	1.0	False
707.894	0.0	1Suff RealStemNW	15	707894	exclusful	0.0	1.0	False
709.753	0.0	2Suff RealStemNW	25	709753	useiously	0.0	1.0	False
711.12	0.0	2Suff RealStemNW	25	711120	intentality	0.0	1.0	False
713.013	0.0	0Suff NW	4	713013	trith	0.0	1.0	False
714.238	0.0	2Suff w/o Lat.	22	714238	nationality	1.0	0.0	False
715.855	0.0	2Suff Composite	23	715855	maturation	1.0	0.0	False
717.689	0.0	0Suff w/o Lat.	2	717689	spirit	1.0	0.0	False
718.798	0.0	0Suff NW	4	718798	rinch	0.0	1.0	False
720.057	0.0	2Suff w/o Lat.	22	720057	fertilizer	1.0	0.0	False
721.315	0.0	2Suff PseudoStemNW	24	721315	colliffively	0.0	1.0	False
722.632	0.0	0Suff w/o Lat.	2	722632	right	1.0	0.0	False
723.924	0.0	0Suff w/o Lat.	2	723924	instinct	1.0	0.0	False
725.141	0.0	0Suff w/o Lat.	2	725141	module	1.0	0.0	False
726.509	0.0	2Suff w/o Lat.	22	726509	kindliness	1.0	1.0	True
728.159	0.0	0Suff w/o Lat.	2	728159	truth	1.0	0.0	False
729.409	0.0	2Suff RealStemNW	25	729409	regionical	0.0	1.0	False
730.818	0.0	2Suff PseudoStemNW	24	730818	spippery	0.0	0.0	True
732.444	0.0	2Suff w/o Lat.	22	732444	noisily	1.0	0.0	False
734.294	0.0	2Suff Composite	23	734294	altercation	1.0	1.0	True
735.403	0.0	0Suff NW	4	735403	combore	0.0	1.0	False
736.862	0.0	2Suff RealStemNW	25	736862	actfully	0.0	0.0	True
738.662	0.0	2Suff PseudoStemNW	24	738662	trithfulness	0.0	1.0	False
739.904	0.0	1Suff w/o Lat.	12	739904	various	1.0	0.0	False
741.255	0.0	2Suff w/ Lat.	21	741255	expressionist	1.0	0.0	False
742.63	0.0	2Suff w/o Lat.	22	742630	continually	1.0	0.0	False
743.906	0.0	1Suff w/o Lat.	12	743906	careful	1.0	0.0	False
745.406	0.0	2Suff RealStemNW	25	745406	noisery	0.0	1.0	False
746.79	0.0	1Suff w/o Lat.	12	746790	variable	1.0	0.0	False
747.89	0.0	2Suff RealStemNW	25	747890	farcally	0.0	1.0	False
749.157	0.0	2Suff Composite	23	749157	synchronization	1.0	0.0	False
750.516	0.0	1Suff w/o Lat.	12	750516	collective	1.0	0.0	False
751.558	0.0	1Suff w/o Lat.	12	751558	powerful	1.0	0.0	False
752.633	0.0	1Suff w/o Lat.	12	752633	comfortable	1.0	0.0	False
753.759	0.0	2Suff PseudoStemNW	24	753759	kibsliness	0.0	1.0	False
754.809	0.0	0Suff w/o Lat.	2	754809	drunk	1.0	0.0	False
755.943	0.0	0Suff w/o Lat.	2	755943	nation	1.0	0.0	False
757.085	0.0	1Suff PseudoStemNW	14	757085	indlidstive	0.0	1.0	False
758.335	0.0	2Suff RealStemNW	25	758335	clinicical	0.0	1.0	False
760.111	0.0	1Suff RealStemNW	15	760111	helpable	0.0	1.0	False
761.644	0.0	2Suff w/o Lat.	22	761644	justifiable	1.0	0.0	False
763.036	0.0	2Suff w/o Lat.	22	763036	breathlessly	1.0	0.0	False
764.779	0.0	2Suff w/o Lat.	22	764779	spiritualism	1.0	0.0	False
766.154	0.0	2Suff w/o Lat.	22	766154	excellently	1.0	0.0	False
768.288	0.0	0Suff NW	4	768288	brole	0.0	1.0	False
769.322	0.0	2Suff w/o Lat.	22	769322	drunkenly	1.0	1.0	True
770.739	0.0	0Suff w/ Lat.	1	770739	effect	1.0	0.0	False
771.914	0.0	1Suff w/o Lat.	12	771914	secondary	1.0	0.0	False
773.648	0.0	2Suff PseudoStemNW	24	773648	fortorately	0.0	1.0	False
774.823	0.0	1Suff w/o Lat.	12	774823	sharpen	1.0	1.0	True
776.257	0.0	1Suff PseudoStemNW	14	776257	movectize	0.0	1.0	False
777.474	0.0	0Suff NW	4	777474	orn	0.0	1.0	False
778.591	0.0	2Suff PseudoStemNW	24	778591	janiability	0.0	1.0	False
779.7	0.0	2Suff w/o Lat.	22	779700	heroically	1.0	0.0	False
781.525	0.0	1Suff PseudoStemNW	14	781525	flivitual	0.0	1.0	False
782.792	0.0	2Suff w/o Lat.	22	782792	modernization	1.0	0.0	False
783.918	0.0	1Suff RealStemNW	15	783918	virtance	0.0	1.0	False
785.385	0.0	0Suff NW	4	785385	podent	0.0	1.0	False
786.56	0.0	2Suff RealStemNW	25	786560	expressmental	0.0	1.0	False
833.108	0.0	1Suff RealStemNW	15	833108	feverory	0.0	1.0	False
834.4	0.0	2Suff w/o Lat.	22	834400	stylistic	1.0	0.0	False
835.575	0.0	2Suff w/o Lat.	22	835575	fertilization	1.0	0.0	False
836.867	0.0	2Suff RealStemNW	25	836867	exceptality	0.0	1.0	False
838.668	0.0	1Suff PseudoStemNW	14	838668	traphetic	0.0	1.0	False
839.868	0.0	0Suff w/ Lat.	1	839868	conduct	1.0	0.0	False
840.944	0.0	2Suff w/o Lat.	22	840944	personalize	1.0	0.0	False
842.069	0.0	1Suff PseudoStemNW	14	842069	franical	0.0	1.0	False
843.278	0.0	1Suff RealStemNW	15	843278	legalist	0.0	1.0	False
844.511	0.0	1Suff PseudoStemNW	14	844511	ceantless	0.0	1.0	False
845.712	0.0	0Suff w/o Lat.	2	845712	attract	1.0	0.0	False
846.804	0.0	2Suff w/o Lat.	22	846804	humanistic	1.0	0.0	False
847.754	0.0	2Suff RealStemNW	25	847754	joyality	0.0	1.0	False
849.146	0.0	2Suff w/o Lat.	22	849146	loveliness	1.0	0.0	False
850.188	0.0	1Suff PseudoStemNW	14	850188	jokful	0.0	1.0	False
851.239	0.0	2Suff PseudoStemNW	24	851239	murpilessly	0.0	1.0	False
852.581	0.0	2Suff Composite	23	852581	whimsical	1.0	1.0	True
853.589	0.0	0Suff w/o Lat.	2	853589	fool	1.0	0.0	False
854.523	0.0	1Suff RealStemNW	15	854523	comparatful	0.0	1.0	False
856.007	0.0	2Suff w/o Lat.	22	856007	endlessly	1.0	0.0	False
857.265	0.0	1Suff PseudoStemNW	14	857265	crerical	0.0	1.0	False
858.341	0.0	0Suff NW	4	858341	pacic	0.0	1.0	False
859.624	0.0	2Suff w/ Lat.	21	859624	perfectionist	1.0	0.0	False
860.983	0.0	2Suff PseudoStemNW	24	860983	cutfurally	0.0	1.0	False
862.267	0.0	2Suff PseudoStemNW	24	862267	patudation	0.0	1.0	False
863.559	0.0	0Suff w/o Lat.	2	863559	vaccine	1.0	0.0	False
865.051	0.0	0Suff w/o Lat.	2	865051	legal	1.0	0.0	False
866.343	0.0	0Suff NW	4	866343	kibs	0.0	1.0	False
867.51	0.0	2Suff PseudoStemNW	24	867510	comberatively	0.0	1.0	False
869.077	0.0	0Suff w/o Lat.	2	869077	cease	1.0	0.0	False
870.261	0.0	0Suff w/o Lat.	2	870261	FALSE	1.0	0.0	False
871.486	0.0	2Suff PseudoStemNW	24	871486	procation	0.0	0.0	True
872.837	0.0	2Suff PseudoStemNW	24	872837	inglinitional	0.0	1.0	False
874.462	0.0	2Suff RealStemNW	25	874462	ceaseiously	0.0	1.0	False
876.146	0.0	2Suff Composite	23	876146	solidification	1.0	0.0	False
877.48	0.0	1Suff RealStemNW	15	877480	monumentic	0.0	0.0	True
879.014	0.0	2Suff PseudoStemNW	24	879014	vetcination	0.0	1.0	False
880.289	0.0	0Suff NW	4	880289	clade	0.0	1.0	False
881.656	0.0	2Suff w/o Lat.	22	881656	loneliness	1.0	0.0	False
882.982	0.0	1Suff w/o Lat.	12	882982	feverish	1.0	0.0	False
884.49	0.0	0Suff w/o Lat.	2	884490	notice	1.0	0.0	False
885.983	0.0	1Suff PseudoStemNW	14	885983	shacten	0.0	0.0	True
887.633	0.0	0Suff NW	4	887633	luds	0.0	1.0	False
888.617	0.0	1Suff w/o Lat.	12	888617	purify	1.0	0.0	False
890.309	0.0	0Suff w/o Lat.	2	890309	optic	1.0	0.0	False
891.484	0.0	2Suff PseudoStemNW	24	891484	onwertionable	0.0	1.0	False
892.668	0.0	1Suff w/o Lat.	12	892668	spiritual	1.0	0.0	False
893.685	0.0	2Suff RealStemNW	25	893685	nationical	0.0	1.0	False
895.094	0.0	2Suff RealStemNW	25	895094	quizzally	0.0	1.0	False
896.177	0.0	1Suff w/o Lat.	12	896177	tireless	1.0	1.0	True
897.436	0.0	0Suff w/o Lat.	2	897436	mourn	1.0	0.0	False
898.878	0.0	0Suff NW	4	898878	ind	0.0	1.0	False
900.02	0.0	2Suff PseudoStemNW	24	900020	byvrical	0.0	1.0	False
901.054	0.0	0Suff w/o Lat.	2	901054	comic	1.0	0.0	False
902.096	0.0	1Suff w/ Lat.	11	902096	exclusive	1.0	1.0	True
903.171	0.0	2Suff PseudoStemNW	24	903171	awnfully	0.0	1.0	False
905.055	0.0	2Suff PseudoStemNW	24	905055	blunkenness	0.0	1.0	False
906.072	0.0	1Suff w/o Lat.	12	906072	attentive	1.0	0.0	False
907.314	0.0	2Suff w/o Lat.	22	907314	needlessly	1.0	0.0	False
908.79	0.0	2Suff w/o Lat.	22	908790	fruitlessly	1.0	1.0	True
910.573	0.0	2Suff PseudoStemNW	24	910573	prosodural	0.0	1.0	False
911.982	0.0	2Suff w/o Lat.	22	911982	mournfully	1.0	0.0	False
913.174	0.0	0Suff NW	4	913174	carsh	0.0	1.0	False
914.341	0.0	0Suff w/o Lat.	2	914341	tire	1.0	0.0	False
915.792	0.0	1Suff RealStemNW	15	915792	effectful	0.0	1.0	False
917.659	0.0	1Suff w/o Lat.	12	917659	noisy	1.0	0.0	False
919.034	0.0	2Suff RealStemNW	25	919034	unifilessly	0.0	1.0	False
921.035	0.0	2Suff w/o Lat.	22	921035	methodically	1.0	0.0	False
922.585	0.0	2Suff PseudoStemNW	24	922585	pimerfully	0.0	1.0	False
924.053	0.0	2Suff PseudoStemNW	24	924053	sarumentally	0.0	1.0	False
925.495	0.0	2Suff w/o Lat.	22	925495	creatively	1.0	0.0	False
926.887	0.0	2Suff w/o Lat.	22	926887	comfortably	1.0	0.0	False
928.137	0.0	2Suff w/o Lat.	22	928137	foolishness	1.0	0.0	False
929.446	0.0	0Suff NW	4	929446	spip	0.0	1.0	False
930.521	0.0	2Suff Composite	23	930521	computation	1.0	0.0	False
931.855	0.0	2Suff w/o Lat.	22	931855	rightfully	1.0	0.0	False
933.014	0.0	2Suff PseudoStemNW	24	933014	excrodiveness	0.0	1.0	False
934.389	0.0	1Suff w/o Lat.	12	934389	causal	1.0	0.0	False
935.84	0.0	1Suff w/o Lat.	12	935840	clinical	1.0	0.0	False
937.657	0.0	0Suff NW	4	937657	coatage	0.0	1.0	False
939.824	0.0	1Suff w/o Lat.	12	939824	personal	1.0	1.0	True
941.366	0.0	2Suff RealStemNW	25	941366	selfiveness	0.0	1.0	False
942.717	0.0	2Suff Composite	23	942717	vulgarization	1.0	0.0	False
944.317	0.0	0Suff w/o Lat.	2	944317	joy	1.0	0.0	False
945.301	0.0	0Suff NW	4	945301	mourd	0.0	1.0	False
946.668	0.0	2Suff w/o Lat.	22	946668	brutalize	1.0	0.0	False
947.893	0.0	2Suff RealStemNW	25	947893	excessfully	0.0	0.0	True
949.144	0.0	2Suff w/o Lat.	22	949144	selfishness	1.0	0.0	False
950.486	0.0	1Suff RealStemNW	15	950486	variment	0.0	1.0	False
951.661	0.0	2Suff RealStemNW	25	951661	magicical	0.0	1.0	False
952.986	0.0	1Suff w/o Lat.	12	952986	suitable	1.0	0.0	False
954.087	0.0	1Suff RealStemNW	15	954087	falsant	0.0	1.0	False
955.246	0.0	2Suff RealStemNW	25	955246	excellalism	0.0	1.0	False
956.513	0.0	0Suff w/o Lat.	2	956513	exist	1.0	0.0	False
957.48	0.0	2Suff Composite	23	957480	identification	1.0	0.0	False
958.905	0.0	0Suff w/ Lat.	1	958905	institute	1.0	0.0	False
959.905	0.0	0Suff w/o Lat.	2	959905	prefer	1.0	0.0	False
961.014	0.0	2Suff PseudoStemNW	24	961014	pipsonality	0.0	1.0	False
962.089	0.0	1Suff w/o Lat.	12	962089	civilize	1.0	0.0	False
963.44	0.0	1Suff w/o Lat.	12	963440	modernize	1.0	0.0	False
964.573	0.0	0Suff w/o Lat.	2	964573	art	1.0	0.0	False
966.04	0.0	0Suff NW	4	966040	adnise	0.0	1.0	False
967.649	0.0	0Suff NW	4	967649	selp	0.0	1.0	False
968.925	0.0	0Suff NW	4	968925	tedal	0.0	1.0	False
970.058	0.0	0Suff NW	4	970058	abadill	0.0	1.0	False
971.259	0.0	0Suff w/ Lat.	1	971259	express	1.0	0.0	False
972.259	0.0	2Suff w/o Lat.	22	972259	fearfully	1.0	0.0	False
973.518	0.0	2Suff PseudoStemNW	24	973518	lokeliness	0.0	1.0	False
974.568	0.0	0Suff NW	4	974568	movect	0.0	1.0	False
975.652	0.0	1Suff w/o Lat.	12	975652	cultural	1.0	0.0	False
977.902	0.0	2Suff w/o Lat.	22	977902	causality	1.0	0.0	False
978.903	0.0	2Suff w/o Lat.	22	978903	noticeably	1.0	0.0	False
980.487	0.0	0Suff NW	4	980487	mympol	0.0	1.0	False
981.487	0.0	1Suff w/o Lat.	12	981487	truthful	1.0	0.0	False
982.546	0.0	2Suff Composite	23	982546	quizzical	1.0	1.0	True
983.929	0.0	1Suff PseudoStemNW	14	983929	eschession	0.0	1.0	False
985.238	0.0	1Suff PseudoStemNW	14	985238	elpardive	0.0	1.0	False
986.197	0.0	1Suff RealStemNW	15	986197	stylify	0.0	1.0	False
987.422	0.0	2Suff w/o Lat.	22	987422	nationalism	1.0	0.0	False
990.206	0.0	0Suff NW	4	990206	vetcine	0.0	1.0	False
991.323	0.0	0Suff NW	4	991323	elpard	0.0	1.0	False
992.382	0.0	2Suff PseudoStemNW	24	992382	movectistic	0.0	1.0	False
993.532	0.0	2Suff w/ Lat.	21	993532	effectively	1.0	0.0	False
994.858	0.0	1Suff RealStemNW	15	994858	exceptate	0.0	1.0	False
996.091	0.0	1Suff w/o Lat.	12	996091	senseless	1.0	0.0	False
997.5	0.0	0Suff NW	4	997500	allend	0.0	1.0	False
998.517	0.0	0Suff NW	4	998517	eschess	0.0	1.0	False
999.759	0.0	1Suff PseudoStemNW	14	999759	rinchful	0.0	1.0	False
1000.935	0.0	1Suff w/o Lat.	12	1000935	drunken	1.0	0.0	False
1002.018	0.0	2Suff RealStemNW	25	1002018	identally	0.0	1.0	False
1003.66	0.0	2Suff w/o Lat.	22	1003660	foolishly	1.0	0.0	False
1005.011	0.0	2Suff w/ Lat.	21	1005011	presumably	1.0	0.0	False
1006.019	0.0	2Suff w/o Lat.	22	1006019	secondarily	1.0	0.0	False
1007.053	0.0	0Suff w/ Lat.	1	1007053	conclude	1.0	0.0	False
1008.037	0.0	2Suff w/o Lat.	22	1008037	assertiveness	1.0	0.0	False
1009.262	0.0	2Suff PseudoStemNW	24	1009262	jistifiable	0.0	0.0	True
1010.496	0.0	2Suff Composite	23	1010496	filtration	1.0	0.0	False
1011.746	0.0	0Suff NW	4	1011746	nolave	0.0	1.0	False
1012.872	0.0	0Suff w/o Lat.	2	1012872	industry	1.0	0.0	False
1014.047	0.0	0Suff NW	4	1014047	precuke	0.0	1.0	False
1015.206	0.0	1Suff RealStemNW	15	1015206	truthive	0.0	1.0	False
1016.848	0.0	1Suff w/o Lat.	12	1016848	owner	1.0	0.0	False
1018.557	0.0	1Suff w/o Lat.	12	1018557	critical	1.0	0.0	False
1019.507	0.0	2Suff RealStemNW	25	1019507	selectously	0.0	1.0	False
1021.466	0.0	0Suff w/o Lat.	2	1021466	act	1.0	0.0	False
1022.366	0.0	1Suff PseudoStemNW	14	1022366	expredive	0.0	1.0	False
1023.575	0.0	0Suff w/o Lat.	2	1023575	virtue	1.0	0.0	False
1024.775	0.0	2Suff w/o Lat.	22	1024775	slippery	1.0	0.0	False
1026.017	0.0	1Suff RealStemNW	15	1026017	slippor	0.0	1.0	False
1027.209	0.0	2Suff w/o Lat.	22	1027209	preferably	1.0	0.0	False
1028.343	0.0	0Suff w/o Lat.	2	1028343	beauty	1.0	0.0	False
1029.46	0.0	2Suff w/ Lat.	21	1029460	intentional	1.0	0.0	False
1030.735	0.0	2Suff PseudoStemNW	24	1030735	herfalist	0.0	1.0	False
1031.811	0.0	2Suff w/o Lat.	22	1031811	modulation	1.0	0.0	False
1032.936	0.0	0Suff NW	4	1032936	jok	0.0	1.0	False
1034.103	0.0	2Suff PseudoStemNW	24	1034103	abadilionist	0.0	1.0	False
1035.478	0.0	1Suff PseudoStemNW	14	1035478	sothodical	0.0	1.0	False
1037.121	0.0	1Suff RealStemNW	15	1037121	humanify	0.0	1.0	False
1038.404	0.0	1Suff w/o Lat.	12	1038404	foolish	1.0	0.0	False
1040.513	0.0	1Suff w/o Lat.	12	1040513	wonderful	1.0	0.0	False
1041.755	0.0	0Suff w/o Lat.	2	1041755	excel	1.0	0.0	False
1042.964	0.0	0Suff NW	4	1042964	healt	0.0	1.0	False
1044.123	0.0	0Suff w/o Lat.	2	1044123	proceed	1.0	0.0	False
1045.273	0.0	2Suff PseudoStemNW	24	1045273	connurtivity	0.0	1.0	False
1046.474	0.0	2Suff w/o Lat.	22	1046474	usefulness	1.0	0.0	False
1047.732	0.0	0Suff w/ Lat.	1	1047732	object	1.0	0.0	False
1048.816	0.0	2Suff w/o Lat.	22	1048816	instinctively	1.0	0.0	False
1050.15	0.0	2Suff w/o Lat.	22	1050150	hastily	1.0	0.0	False
1051.508	0.0	2Suff RealStemNW	25	1051508	computitely	0.0	1.0	False
1053.884	0.0	1Suff w/o Lat.	12	1053884	attractive	1.0	0.0	False
1054.901	0.0	2Suff w/o Lat.	22	1054901	helplessly	1.0	0.0	False
1056.143	0.0	2Suff w/o Lat.	22	1056143	feverishly	1.0	0.0	False
1057.352	0.0	0Suff w/o Lat.	2	1057352	method	1.0	1.0	True
1058.644	0.0	2Suff RealStemNW	25	1058644	prophetionist	0.0	1.0	False
1059.844	0.0	1Suff PseudoStemNW	14	1059844	indless	0.0	1.0	False
1061.061	0.0	2Suff RealStemNW	25	1061061	momentantly	0.0	0.0	True
1062.428	0.0	1Suff PseudoStemNW	14	1062428	exfallent	0.0	1.0	False
1063.679	0.0	2Suff w/o Lat.	22	1063679	comically	1.0	0.0	False
1064.979	0.0	1Suff w/o Lat.	12	1064979	lucky	1.0	0.0	False
1065.938	0.0	2Suff w/o Lat.	22	1065938	effortlessly	1.0	0.0	False
1067.097	0.0	2Suff RealStemNW	25	1067097	suitfulness	0.0	1.0	False
1069.131	0.0	1Suff w/o Lat.	12	1069131	instinctive	1.0	0.0	False
1070.147	0.0	0Suff w/o Lat.	2	1070147	confide	1.0	0.0	False
1071.265	0.0	2Suff RealStemNW	25	1071265	respectfully	0.0	0.0	True
1072.365	0.0	0Suff w/o Lat.	2	1072365	lone	1.0	1.0	True
1073.774	0.0	2Suff PseudoStemNW	24	1073774	mourdfully	0.0	0.0	True
1074.907	0.0	2Suff w/o Lat.	22	1074907	helplessness	1.0	0.0	False
1076.108	0.0	0Suff NW	4	1076108	assork	0.0	1.0	False
1077.308	0.0	2Suff w/o Lat.	22	1077308	greedily	1.0	0.0	False
1078.508	0.0	2Suff w/o Lat.	22	1078508	brutality	1.0	0.0	False
1079.617	0.0	0Suff NW	4	1079617	seet	0.0	1.0	False
1080.909	0.0	1Suff PseudoStemNW	14	1080909	coyimal	0.0	1.0	False
1081.859	0.0	2Suff PseudoStemNW	24	1081859	massienately	0.0	1.0	False
1083.443	0.0	0Suff w/o Lat.	2	1083443	compute	1.0	1.0	True
1084.61	0.0	2Suff Composite	23	1084610	orientation	1.0	0.0	False
1086.102	0.0	1Suff RealStemNW	15	1086102	conductful	0.0	1.0	False
1087.469	0.0	1Suff RealStemNW	15	1087469	selectful	0.0	0.0	True
1088.703	0.0	2Suff PseudoStemNW	24	1088703	flivitualism	0.0	1.0	False
1090.045	0.0	2Suff Composite	23	1090045	voyeuristic	1.0	1.0	True
1091.087	0.0	0Suff NW	4	1091087	contitum	0.0	1.0	False
1092.221	0.0	2Suff w/o Lat.	22	1092221	spiritualize	1.0	0.0	False
1093.196	0.0	2Suff w/o Lat.	22	1093196	falsification	1.0	0.0	False
1094.322	0.0	2Suff w/o Lat.	22	1094322	dangerously	1.0	0.0	False
1095.93	0.0	2Suff w/o Lat.	22	1095930	senselessly	1.0	0.0	False
1097.064	0.0	1Suff PseudoStemNW	14	1097064	pipsonal	0.0	1.0	False
1098.131	0.0	1Suff w/ Lat.	11	1098131	presumable	1.0	0.0	False
1099.373	0.0	2Suff RealStemNW	25	1099373	brutional	0.0	1.0	False
1100.49	0.0	2Suff PseudoStemNW	24	1100490	selvuality	0.0	1.0	False
1101.966	0.0	1Suff w/ Lat.	11	1101966	conclusive	1.0	0.0	False
1102.974	0.0	2Suff RealStemNW	25	1102974	drunkoral	0.0	1.0	False
1104.075	0.0	0Suff NW	4	1104075	victap	0.0	1.0	False
1105.125	0.0	0Suff NW	4	1105125	recrern	0.0	1.0	False
1106.175	0.0	0Suff NW	4	1106175	ceant	0.0	1.0	False
1107.167	0.0	2Suff RealStemNW	25	1107167	careiousness	0.0	1.0	False
1108.301	0.0	1Suff RealStemNW	15	1108301	traditionic	0.0	1.0	False
1109.751	0.0	1Suff RealStemNW	15	1109751	composian	0.0	1.0	False
1110.91	0.0	0Suff NW	4	1110910	exfal	0.0	1.0	False
1112.586	0.0	1Suff RealStemNW	15	1112586	careable	0.0	1.0	False
1114.203	0.0	0Suff NW	4	1114203	conspode	0.0	1.0	False
1115.561	0.0	1Suff PseudoStemNW	14	1115561	cuppomary	0.0	1.0	False
1116.72	0.0	2Suff Composite	23	1116720	allegorical	1.0		False
1119.121	0.0	0Suff w/o Lat.	2	1119121	brute	1.0	0.0	False
1120.138	0.0	2Suff w/ Lat.	21	1120138	excessively	1.0	0.0	False
1121.297	0.0	1Suff PseudoStemNW	14	1121297	seetable	0.0	1.0	False
1122.672	0.0	1Suff PseudoStemNW	14	1122672	griedy	0.0	1.0	False
1123.664	0.0	0Suff NW	4	1123664	moolure	0.0	1.0	False
1124.756	0.0	0Suff w/o Lat.	2	1124756	sharp	1.0	0.0	False
1125.865	0.0	1Suff w/o Lat.	12	1125865	herbal	1.0	0.0	False
1126.965	0.0	2Suff RealStemNW	25	1126965	loneionist	0.0	1.0	False
1128.207	0.0	1Suff w/o Lat.	12	1128207	slipper	1.0		False
1130.599	0.0	0Suff NW	4	1130599	combere	0.0	1.0	False
1132.558	0.0	2Suff Composite	23	1132558	degradation	1.0	0.0	False
1134.267	0.0	1Suff RealStemNW	15	1134267	momentish	0.0	1.0	False
1136.118	0.0	2Suff PseudoStemNW	24	1136118	soripsistic	0.0	1.0	False
1137.827	0.0	2Suff PseudoStemNW	24	1137827	jokfully	0.0	1.0	False
1139.085	0.0	0Suff w/o Lat.	2	1139085	noise	1.0	0.0	False
1140.211	0.0	0Suff w/o Lat.	2	1140211	fever	1.0	0.0	False
1141.336	0.0	2Suff PseudoStemNW	24	1141336	sothodically	0.0	1.0	False
1168.569	0.0	2Suff w/o Lat.	22	1168569	activity	1.0	0.0	False
1169.528	0.0	0Suff w/o Lat.	2	1169528	compare	1.0	0.0	False
1170.578	0.0	0Suff NW	4	1170578	lums	0.0	1.0	False
1171.629	0.0	1Suff w/o Lat.	12	1171629	fruitless	1.0	0.0	False
1172.846	0.0	0Suff NW	4	1172846	lond	0.0	1.0	False
1173.838	0.0	0Suff w/o Lat.	2	1173838	herb	1.0	0.0	False
1174.955	0.0	0Suff NW	4	1174955	excrode	0.0	1.0	False
1176.047	0.0	2Suff w/ Lat.	21	1176047	institutional	1.0	0.0	False
1176.93	0.0	2Suff RealStemNW	25	1176930	attentfully	0.0	1.0	False
1178.197	0.0	1Suff w/o Lat.	12	1178197	traditional	1.0	0.0	False
1179.114	0.0	2Suff w/o Lat.	22	1179114	truthfully	1.0	0.0	False
1180.156	0.0	0Suff NW	4	1180156	byvre	0.0	1.0	False
1181.165	0.0	2Suff w/o Lat.	22	1181165	personally	1.0	0.0	False
1182.249	0.0	2Suff Composite	23	1182249	fortification	1.0	0.0	False
1183.232	0.0	2Suff w/o Lat.	22	1183232	drunkenness	1.0	0.0	False
1184.424	0.0	2Suff RealStemNW	25	1184424	sensator	0.0	1.0	False
1185.8	0.0	1Suff PseudoStemNW	14	1185800	rebuinal	0.0	1.0	False
1186.833	0.0	2Suff PseudoStemNW	24	1186833	excrodively	0.0	1.0	False
1187.942	0.0	1Suff w/o Lat.	12	1187942	fearful	1.0	0.0	False
1189.042	0.0	1Suff w/o Lat.	12	1189042	flexible	1.0	0.0	False
1190.268	0.0	2Suff PseudoStemNW	24	1190268	cronitionally	0.0	1.0	False
1191.385	0.0	2Suff w/o Lat.	22	1191385	wonderfully	1.0	0.0	False
1192.602	0.0	0Suff NW	4	1192602	cuppom	0.0	1.0	False
1193.685	0.0	0Suff w/o Lat.	2	1193685	modern	1.0	0.0	False
1194.894	0.0	0Suff w/o Lat.	2	1194894	effort	1.0	0.0	False
1195.961	0.0	0Suff w/o Lat.	2	1195961	cycle	1.0	0.0	False
1197.095	0.0	2Suff PseudoStemNW	24	1197095	canklessly	0.0	1.0	False
1198.195	0.0	2Suff PseudoStemNW	24	1198195	foffification	0.0	0.0	True
1199.479	0.0	1Suff RealStemNW	15	1199479	fruitable	0.0	0.0	True
1200.704	0.0	2Suff PseudoStemNW	24	1200704	lurtilizer	0.0	1.0	False
1201.838	0.0	2Suff w/o Lat.	22	1201838	personality	1.0	0.0	False
1202.83	0.0	2Suff Composite	23	1202830	hierarchical	1.0	0.0	False
1204.022	0.0	1Suff w/o Lat.	12	1204022	fortunate	1.0	0.0	False
1205.114	0.0	2Suff w/o Lat.	22	1205114	sharpener	1.0	0.0	False
1206.331	0.0	1Suff w/o Lat.	12	1206331	classic	1.0	0.0	False
1207.548	0.0	0Suff NW	4	1207548	lecer	0.0	1.0	False
1208.665	0.0	2Suff w/ Lat.	21	1208665	composition	1.0	0.0	False
1209.815	0.0	2Suff PseudoStemNW	24	1209815	pogularization	0.0	1.0	False
1211.599	0.0	2Suff Composite	23	1211599	ordination	1.0	1.0	True
1213.475	0.0	2Suff RealStemNW	25	1213475	causional	0.0	1.0	False
1215.059	0.0	1Suff w/o Lat.	12	1215059	sensual	1.0	0.0	False
1216.192	0.0	2Suff RealStemNW	25	1216192	whimsally	0.0	1.0	False
1217.735	0.0	2Suff RealStemNW	25	1217735	embarkfully	0.0	1.0	False
1219.16	0.0	1Suff PseudoStemNW	14	1219160	allendive	0.0	1.0	False
1220.444	0.0	2Suff RealStemNW	25	1220444	dergadfully	0.0	1.0	False
1221.752	0.0	2Suff w/o Lat.	22	1221752	attractively	1.0	0.0	False
1223.22	0.0	2Suff w/o Lat.	22	1223220	passionately	1.0	0.0	False
1224.462	0.0	2Suff w/ Lat.	21	1224462	exceptional	1.0	0.0	False
1225.445	0.0	0Suff w/ Lat.	1	1225445	excess	1.0	0.0	False
1226.954	0.0	1Suff PseudoStemNW	14	1226954	obwertion	0.0	1.0	False
1228.079	0.0	0Suff NW	4	1228079	prosood	0.0	1.0	False
1229.288	0.0	1Suff w/o Lat.	12	1229288	sensible	1.0	0.0	False
1230.438	0.0	1Suff w/o Lat.	12	1230438	confidence	1.0	0.0	False
1231.755	0.0	1Suff w/o Lat.	12	1231755	endless	1.0	0.0	False
1232.848	0.0	2Suff RealStemNW	25	1232848	noticeator	0.0	0.0	True
1234.99	0.0	0Suff NW	4	1234990	comfern	0.0	1.0	False
1236.382	0.0	1Suff w/o Lat.	12	1236382	admirable	1.0	0.0	False
1237.782	0.0	1Suff PseudoStemNW	14	1237782	mymbolic	0.0	1.0	False
1239.033	0.0	2Suff w/o Lat.	22	1239033	significance	1.0	0.0	False
1240.708	0.0	2Suff w/o Lat.	22	1240708	heartily	1.0	1.0	True
1242.217	0.0	2Suff RealStemNW	25	1242217	breathiously	0.0	1.0	False
1243.918	0.0	2Suff w/o Lat.	22	1243918	optically	1.0	0.0	False
1245.01	0.0	0Suff w/o Lat.	2	1245010	magic	1.0	0.0	False
1245.902	0.0	1Suff w/o Lat.	12	1245902	passionate	1.0	0.0	False
1246.81	0.0	2Suff PseudoStemNW	24	1246810	navounalism	0.0	1.0	False
1248.111	0.0	1Suff RealStemNW	15	1248111	victimist	0.0	0.0	True
1249.069	0.0	2Suff w/o Lat.	22	1249069	sensuality	1.0	0.0	False
1250.278	0.0	2Suff RealStemNW	25	1250278	assertishness	0.0	1.0	False
1251.312	0.0	2Suff PseudoStemNW	24	1251312	fipitation	0.0	1.0	False
1252.404	0.0	0Suff w/o Lat.	2	1252404	heart	1.0	0.0	False
1253.304	0.0	2Suff PseudoStemNW	24	1253304	perfallionism	0.0	1.0	False
1254.312	0.0	0Suff NW	4	1254312	copperce	0.0	1.0	False
1255.446	0.0	0Suff w/o Lat.	2	1255446	collect	1.0	1.0	True
1256.405	0.0	2Suff RealStemNW	25	1256405	selectfully	0.0	1.0	False
1257.638	0.0	2Suff RealStemNW	25	1257638	tacticical	0.0	1.0	False
1258.772	0.0	2Suff RealStemNW	25	1258772	feverality	0.0	1.0	False
1259.781	0.0	2Suff RealStemNW	25	1259781	signmentive	0.0	1.0	False
1260.723	0.0	2Suff w/o Lat.	22	1260723	artistic	1.0	0.0	False
1261.856	0.0	0Suff NW	4	1261856	brealt	0.0	1.0	False
1263.023	0.0	1Suff PseudoStemNW	14	1263023	arpive	0.0	1.0	False
1263.965	0.0	1Suff PseudoStemNW	14	1263965	precukable	0.0	1.0	False
1264.966	0.0	0Suff w/o Lat.	2	1264966	help	1.0	0.0	False
1265.958	0.0	1Suff RealStemNW	15	1265958	civilist	0.0	0.0	True
1267.208	0.0	0Suff NW	4	1267208	provace	0.0	1.0	False
1268.225	0.0	2Suff w/o Lat.	22	1268225	nationally	1.0	0.0	False
1269.242	0.0	0Suff w/o Lat.	2	1269242	luck	1.0	0.0	False
1270.292	0.0	2Suff Composite	23	1270292	sensation	1.0	0.0	False
1271.243	0.0	2Suff w/o Lat.	22	1271243	activist	1.0	0.0	False
1272.193	0.0	2Suff RealStemNW	25	1272193	neediously	0.0	1.0	False
1273.527	0.0	1Suff PseudoStemNW	14	1273527	omlical	0.0	1.0	False
1274.877	0.0	0Suff w/o Lat.	2	1274877	argue	1.0	1.0	True
1276.119	0.0	1Suff w/o Lat.	12	1276119	commercial	1.0	0.0	False
1277.244	0.0	2Suff PseudoStemNW	24	1277244	moolurably	0.0	1.0	False
1278.328	0.0	1Suff w/o Lat.	12	1278328	righteous	1.0	0.0	False
1279.537	0.0	0Suff w/o Lat.	2	1279537	fertile	1.0	0.0	False
1280.679	0.0	1Suff w/ Lat.	11	1280679	perfection	1.0	0.0	False
1281.646	0.0	0Suff w/o Lat.	2	1281646	style	1.0	0.0	False
1282.638	0.0	0Suff w/o Lat.	2	1282638	haste	1.0	0.0	False
1283.655	0.0	1Suff PseudoStemNW	14	1283655	selvible	0.0	1.0	False
1285.214	0.0	1Suff w/o Lat.	12	1285214	prophetic	1.0	0.0	False
1286.222	0.0	1Suff RealStemNW	15	1286222	confidious	0.0	1.0	False
1287.856	0.0	1Suff w/o Lat.	12	1287856	continual	1.0	1.0	True
1289.231	0.0	0Suff NW	4	1289231	indolsty	0.0	1.0	False
1290.399	0.0	0Suff NW	4	1290399	onnend	0.0	1.0	False
1291.407	0.0	0Suff NW	4	1291407	vectue	0.0	1.0	False
1292.474	0.0	2Suff w/o Lat.	22	1292474	sensibly	1.0	0.0	False
1294.441	0.0	1Suff w/o Lat.	12	1294441	breathless	1.0	0.0	False
1295.525	0.0	2Suff RealStemNW	25	1295525	explosfully	0.0		False
1297.934	0.0	2Suff w/o Lat.	22	1297934	admirably	1.0	0.0	False
1298.893	0.0	1Suff PseudoStemNW	14	1298893	onnention	0.0	1.0	False
1299.901	0.0	1Suff w/o Lat.	12	1299901	methodical	1.0	0.0	False
1301.327	0.0	0Suff w/o Lat.	2	1301327	symbol	1.0	0.0	False
1302.377	0.0	2Suff PseudoStemNW	24	1302377	comborition	0.0	1.0	False
1303.753	0.0	0Suff NW	4	1303753	mocond	0.0	1.0	False
1304.853	0.0	0Suff w/o Lat.	2	1304853	just	1.0	0.0	False
1305.812	0.0	0Suff NW	4	1305812	sedule	0.0	1.0	False
1307.387	0.0	2Suff PseudoStemNW	24	1307387	effornively	0.0	1.0	False
1308.487	0.0	2Suff w/o Lat.	22	1308487	procedural	1.0	0.0	False
1309.713	0.0	1Suff w/o Lat.	12	1309713	excellent	1.0	0.0	False
1313.397	0.0	2Suff RealStemNW	25	1313397	signiousness	0.0	1.0	False
1314.706	0.0	2Suff w/o Lat.	22	1314706	selectivity	1.0	0.0	False
1315.781	0.0	2Suff RealStemNW	25	1315781	artional	0.0	1.0	False
1316.865	0.0	1Suff RealStemNW	15	1316865	effortable	0.0	0.0	True
1318.007	0.0	0Suff NW	4	1318007	styke	0.0	1.0	False
1319.066	0.0	2Suff w/ Lat.	21	1319066	objectively	1.0	0.0	False
1320.108	0.0	1Suff RealStemNW	15	1320108	needable	0.0	1.0	False
1321.75	0.0	1Suff RealStemNW	15	1321750	selfable	0.0	1.0	False
1322.875	0.0	2Suff RealStemNW	25	1322875	brutantly	0.0	1.0	False
1324.092	0.0	2Suff Composite	23	1324092	farcical	1.0	1.0	True
1325.226	0.0	0Suff w/o Lat.	2	1325226	fruit	1.0	0.0	False
1326.36	0.0	1Suff RealStemNW	15	1326360	classal	0.0	1.0	False
1327.652	0.0	2Suff RealStemNW	25	1327652	objectfully	0.0	0.0	True
1329.235	0.0	2Suff PseudoStemNW	24	1329235	flivitualize	0.0	1.0	False
1330.352	0.0	2Suff w/o Lat.	22	1330352	classical	1.0	0.0	False
1331.253	0.0	1Suff RealStemNW	15	1331253	justant	0.0	1.0	False
1332.411	0.0	1Suff w/o Lat.	12	1332411	joyful	1.0	1.0	True
1333.487	0.0	0Suff w/o Lat.	2	1333487	tradition	1.0	0.0	False
1334.487	0.0	2Suff PseudoStemNW	24	1334487	selvation	0.0	1.0	False
1335.954	0.0	0Suff NW	4	1335954	cutfure	0.0	1.0	False
1337.255	0.0	0Suff w/o Lat.	2	1337255	suit	1.0	0.0	False
1338.322	0.0	0Suff NW	4	1338322	pimer	0.0	1.0	False
1339.455	0.0	0Suff w/o Lat.	2	1339455	need	1.0	0.0	False
1340.439	0.0	2Suff PseudoStemNW	24	1340439	mymbolically	0.0	1.0	False
1341.564	0.0	1Suff RealStemNW	15	1341564	drunkor	0.0	1.0	False
1342.806	0.0	2Suff RealStemNW	25	1342806	fertilability	0.0	1.0	False
1344.749	0.0	2Suff RealStemNW	25	1344749	nationantly	0.0	1.0	False
1346.499	0.0	1Suff w/o Lat.	12	1346499	comparative	1.0	0.0	False
1347.633	0.0	2Suff w/o Lat.	22	1347633	computerize	1.0	0.0	False
1349.192	0.0	2Suff PseudoStemNW	24	1349192	sedulation	0.0	1.0	False
1350.517	0.0	1Suff RealStemNW	15	1350517	continuic	0.0	1.0	False
1351.759	0.0	1Suff w/o Lat.	12	1351759	computer	1.0	0.0	False
1352.884	0.0	2Suff w/o Lat.	22	1352884	clinically	1.0	0.0	False
1354.31	0.0	1Suff PseudoStemNW	14	1354310	comfernable	0.0	1.0	False
1355.969	0.0	2Suff PseudoStemNW	24	1355969	navounality	0.0	1.0	False
1357.119	0.0	2Suff w/o Lat.	22	1357119	courageously	1.0	0.0	False
1358.519	0.0	2Suff RealStemNW	25	1358519	admirical	0.0	1.0	False
1360.053	0.0	2Suff PseudoStemNW	24	1360053	perfallionist	0.0	0.0	True
1361.279	0.0	0Suff w/o Lat.	2	1361279	broke	1.0	0.0	False
1362.179	0.0	2Suff w/ Lat.	21	1362179	expressionism	1.0	0.0	False
1363.546	0.0	2Suff PseudoStemNW	24	1363546	provacional	0.0	1.0	False
1364.913	0.0	2Suff RealStemNW	25	1364913	criticical	0.0	0.0	True
1366.13	0.0	1Suff RealStemNW	15	1366130	abolitate	0.0	1.0	False
1367.731	0.0	2Suff PseudoStemNW	24	1367731	cankfully	0.0	1.0	False
1368.706	0.0	2Suff w/o Lat.	22	1368706	existential	1.0	0.0	False
1370.04	0.0	2Suff PseudoStemNW	24	1370040	atstartively	0.0	1.0	False
1371.44	0.0	0Suff w/ Lat.	1	1371440	exclude	1.0	0.0	False
1372.649	0.0	2Suff RealStemNW	25	1372649	creatously	0.0	1.0	False
1374.324	0.0	1Suff PseudoStemNW	14	1374324	brealtless	0.0	1.0	False
1375.691	0.0	0Suff NW	4	1375691	blunk	0.0	1.0	False
1376.6	0.0	1Suff RealStemNW	15	1376600	purant	0.0	1.0	False
1377.642	0.0	2Suff RealStemNW	25	1377642	identifilessly	0.0	1.0	False
1378.867	0.0	0Suff w/o Lat.	2	1378867	civil	1.0	0.0	False
1379.918	0.0	2Suff PseudoStemNW	24	1379918	murpifully	0.0	1.0	False
1381.043	0.0	1Suff w/o Lat.	12	1381043	virtuous	1.0	0.0	False
1382.318	0.0	1Suff w/o Lat.	12	1382318	justify	1.0	0.0	False
1383.544	0.0	2Suff Composite	23	1383544	identical	1.0	0.0	False
1384.761	0.0	0Suff NW	4	1384761	shact	0.0	1.0	False
1385.786	0.0	2Suff w/o Lat.	22	1385786	joyfully	1.0	0.0	False
1386.945	0.0	1Suff RealStemNW	15	1386945	provisate	0.0	1.0	False
1387.97	0.0	2Suff w/o Lat.	22	1387970	flexibility	1.0	0.0	False
1389.012	0.0	1Suff RealStemNW	15	1389012	modulion	0.0	1.0	False
1390.188	0.0	2Suff PseudoStemNW	24	1390188	seetably	0.0	1.0	False
1391.321	0.0	2Suff Composite	23	1391321	secularization	1.0	0.0	False
1392.913	0.0	2Suff RealStemNW	25	1392913	actality	0.0	1.0	False
1394.731	0.0	2Suff w/o Lat.	22	1394731	mercilessly	1.0	1.0	True
1396.114	0.0	0Suff w/o Lat.	2	1396114	care	1.0	0.0	False
1397.431	0.0	2Suff w/o Lat.	22	1397431	actively	1.0	0.0	False
1398.915	0.0	2Suff w/o Lat.	22	1398915	magically	1.0	0.0	False
1400.224	0.0	1Suff PseudoStemNW	14	1400224	selveless	0.0	1.0	False
1401.299	0.0	2Suff w/ Lat.	21	1401299	provisional	1.0	0.0	False
1402.433	0.0	0Suff w/o Lat.	2	1402433	select	1.0	0.0	False
1403.417	0.0	1Suff w/ Lat.	11	1403417	composite	1.0	1.0	True
1404.659	0.0	2Suff w/ Lat.	21	1404659	inspirational	1.0	0.0	False
1405.626	0.0	2Suff PseudoStemNW	24	1405626	efforniveness	0.0	1.0	False
1406.684	0.0	2Suff w/o Lat.	22	1406684	commercialize	1.0	0.0	False
1407.843	0.0	2Suff RealStemNW	25	1407843	opticical	0.0	1.0	False
1409.252	0.0	1Suff RealStemNW	15	1409252	mournive	0.0	1.0	False
1410.635	0.0	2Suff RealStemNW	25	1410635	masterively	0.0	1.0	False
1412.119	0.0	2Suff PseudoStemNW	24	1412119	bleadfully	0.0	1.0	False
1413.778	0.0	1Suff w/o Lat.	12	1413778	rightful	1.0	0.0	False
1414.903	0.0	1Suff w/o Lat.	12	1414903	ceaseless	1.0	1.0	True
1416.037	0.0	0Suff NW	4	1416037	flivit	0.0	1.0	False
1417.171	0.0	0Suff NW	4	1417171	lurtile	0.0	1.0	False
1418.355	0.0	1Suff RealStemNW	15	1418355	fortunion	0.0	1.0	False
1420.097	0.0	2Suff w/o Lat.	22	1420097	momentarily	1.0	1.0	True
1421.247	0.0	0Suff w/o Lat.	2	1421247	custom	1.0	0.0	False
1422.539	0.0	1Suff PseudoStemNW	14	1422539	desterful	0.0	1.0	False
1423.631	0.0	2Suff w/o Lat.	22	1423631	customarily	1.0	1.0	True
1425.899	0.0	0Suff w/o Lat.	2	1425899	sign	1.0	1.0	True
1426.899	0.0	0Suff NW	4	1426899	perfall	0.0	1.0	False
1428.016	0.0	2Suff RealStemNW	25	1428016	selfiousness	0.0	1.0	False
1429.15	0.0	2Suff RealStemNW	25	1429150	voyeurional	0.0	1.0	False
1430.125	0.0	1Suff RealStemNW	15	1430125	industryic	0.0	1.0	False
1431.425	0.0	1Suff w/o Lat.	12	1431425	optical	1.0	0.0	False
1432.651	0.0	1Suff w/o Lat.	12	1432651	preferable	1.0	0.0	False
1434.209	0.0	2Suff w/o Lat.	22	1434209	joyously	1.0	1.0	True
1435.885	0.0	2Suff w/ Lat.	21	1435885	conclusively	1.0	1.0	True
1437.077	0.0	0Suff NW	4	1437077	herf	0.0	1.0	False
1438.169	0.0	2Suff RealStemNW	25	1438169	fruitiously	0.0	1.0	False
1439.203	0.0	0Suff w/o Lat.	2	1439203	comfort	1.0	0.0	False
1440.353	0.0	0Suff NW	4	1440353	ewils	0.0	1.0	False
1441.387	0.0	0Suff NW	4	1441387	rebuin	0.0	1.0	False
1442.454	0.0	2Suff w/o Lat.	22	1442454	tactically	1.0	1.0	True
1443.537	0.0	0Suff NW	4	1443537	dester	0.0	1.0	False
1444.721	0.0	2Suff RealStemNW	25	1444721	endiously	0.0	1.0	False
1446.196	0.0	0Suff w/o Lat.	2	1446196	sense	1.0	0.0	False
1447.355	0.0	0Suff w/o Lat.	2	1447355	master	1.0	0.0	False
1448.397	0.0	1Suff w/o Lat.	12	1448397	signify	1.0	1.0	True
1449.514	0.0	2Suff Composite	23	1449514	nullification	1.0	0.0	False
1451.115	0.0	1Suff PseudoStemNW	14	1451115	orner	0.0	1.0	False
