onset	duration	trial_type	value	sample	stimulus	is_word	response	correct
28.625	0.0	2Suff w/o Lat.	22	28625	brutalize	1.0	0.0	False
29.526	0.0	1Suff PseudoStemNW	14	29526	exfallent	0.0	0.0	True
30.426	0.0	2Suff PseudoStemNW	24	30426	inglinitional	0.0	1.0	False
31.451	0.0	2Suff w/o Lat.	22	31451	kindliness	1.0	1.0	True
32.593	0.0	0Suff w/o Lat.	2	32593	person	1.0	0.0	False
33.51	0.0	1Suff PseudoStemNW	14	33510	onnention	0.0	1.0	False
34.344	0.0	0Suff NW	4	34344	blead	0.0	0.0	True
35.269	0.0	1Suff w/o Lat.	12	35269	greedy	1.0	0.0	False
36.419	0.0	1Suff PseudoStemNW	14	36419	contituous	0.0	1.0	False
37.286	0.0	2Suff w/o Lat.	22	37286	needlessly	1.0	0.0	False
38.253	0.0	0Suff NW	4	38253	prosood	0.0	1.0	False
39.145	0.0	0Suff w/ Lat.	1	39145	except	1.0	0.0	False
40.071	0.0	2Suff PseudoStemNW	24	40071	murpilessly	0.0	1.0	False
40.938	0.0	2Suff w/o Lat.	22	40938	helplessly	1.0	0.0	False
41.938	0.0	1Suff w/o Lat.	12	41938	methodical	1.0	0.0	False
42.922	0.0	2Suff Composite	23	42922	farcical	1.0	1.0	True
43.847	0.0	0Suff NW	4	43847	retend	0.0	1.0	False
44.93	0.0	1Suff PseudoStemNW	14	44930	coatageous	0.0	1.0	False
45.747	0.0	1Suff RealStemNW	15	45747	cyclal	0.0	1.0	False
46.556	0.0	0Suff NW	4	46556	mympol	0.0	1.0	False
47.298	0.0	2Suff PseudoStemNW	24	47298	pipsonality	0.0	1.0	False
48.006	0.0	2Suff PseudoStemNW	24	48006	soripsistic	0.0	1.0	False
48.757	0.0	2Suff w/o Lat.	22	48757	spiritualism	1.0	1.0	True
49.499	0.0	1Suff w/o Lat.	12	49499	courageous	1.0	0.0	False
50.34	0.0	0Suff NW	4	50340	precuke	0.0	1.0	False
51.057	0.0	0Suff NW	4	51057	loke	0.0	1.0	False
51.883	0.0	2Suff RealStemNW	25	51883	senseiously	0.0	1.0	False
52.741	0.0	2Suff PseudoStemNW	24	52741	herfalist	0.0	1.0	False
53.475	0.0	2Suff RealStemNW	25	53475	identifilessly	0.0	1.0	False
54.267	0.0	0Suff w/o Lat.	2	54267	legal	1.0	0.0	False
55.117	0.0	1Suff PseudoStemNW	14	55117	prosodure	0.0	1.0	False
56.001	0.0	2Suff RealStemNW	25	56001	nullifilessly	0.0	1.0	False
56.809	0.0	0Suff NW	4	56809	selve	0.0	1.0	False
57.709	0.0	1Suff PseudoStemNW	14	57709	franical	0.0	1.0	False
58.468	0.0	2Suff w/o Lat.	22	58468	activist	1.0	1.0	True
59.151	0.0	2Suff PseudoStemNW	24	59151	connurtivity	0.0	1.0	False
59.993	0.0	1Suff RealStemNW	15	59993	conclusful	0.0	1.0	False
60.785	0.0	2Suff w/ Lat.	21	60785	exceptional	1.0	0.0	False
61.736	0.0	0Suff w/o Lat.	2	61736	sign	1.0	0.0	False
62.711	0.0	2Suff w/o Lat.	22	62711	modernistic	1.0	0.0	False
63.545	0.0	2Suff w/o Lat.	22	63545	nationalist	1.0	0.0	False
64.47	0.0	2Suff w/o Lat.	22	64470	tactically	1.0	1.0	True
65.412	0.0	0Suff w/o Lat.	2	65412	end	1.0	1.0	True
66.212	0.0	1Suff PseudoStemNW	14	66212	ewilsence	0.0	1.0	False
67.304	0.0	2Suff w/o Lat.	22	67304	argumentative	1.0	0.0	False
68.363	0.0	0Suff w/ Lat.	1	68363	conduct	1.0	0.0	False
69.305	0.0	1Suff w/o Lat.	12	69305	ceaseless	1.0	0.0	False
70.28	0.0	1Suff PseudoStemNW	14	70280	healty	0.0	0.0	True
71.064	0.0	1Suff RealStemNW	15	71064	preferless	0.0	0.0	True
71.955	0.0	2Suff RealStemNW	25	71955	expansishness	0.0	1.0	False
72.831	0.0	1Suff PseudoStemNW	14	72831	cutfural	0.0	1.0	False
73.714	0.0	1Suff w/o Lat.	12	73714	kindly	1.0	0.0	False
74.715	0.0	1Suff RealStemNW	15	74715	passionion	0.0	1.0	False
75.807	0.0	2Suff w/o Lat.	22	75807	noticeably	1.0	1.0	True
76.932	0.0	2Suff PseudoStemNW	24	76932	onwertionable	0.0	1.0	False
77.982	0.0	0Suff w/o Lat.	2	77982	proceed	1.0	0.0	False
78.966	0.0	1Suff w/o Lat.	12	78966	broker	1.0	0.0	False
79.941	0.0	1Suff w/o Lat.	12	79941	modernize	1.0	0.0	False
80.8	0.0	0Suff w/o Lat.	2	80800	own	1.0	0.0	False
81.642	0.0	2Suff PseudoStemNW	24	81642	mourdfully	0.0	1.0	False
82.784	0.0	2Suff PseudoStemNW	24	82784	ewilsential	0.0	0.0	True
83.726	0.0	2Suff w/o Lat.	22	83726	heroically	1.0	1.0	True
84.618	0.0	2Suff PseudoStemNW	24	84618	comfernably	0.0	1.0	False
85.543	0.0	2Suff w/o Lat.	22	85543	fortunately	1.0	0.0	False
86.477	0.0	0Suff w/o Lat.	2	86477	suit	1.0	0.0	False
87.519	0.0	2Suff RealStemNW	25	87519	ordinfully	0.0	1.0	False
88.377	0.0	2Suff PseudoStemNW	24	88377	foffification	0.0	1.0	False
89.361	0.0	2Suff RealStemNW	25	89361	alterlessly	0.0	1.0	False
90.219	0.0	0Suff NW	4	90219	meleft	0.0	1.0	False
91.203	0.0	2Suff w/o Lat.	22	91203	comfortably	1.0	0.0	False
92.128	0.0	2Suff RealStemNW	25	92128	heroliness	0.0	1.0	False
93.07	0.0	1Suff w/o Lat.	12	93070	existence	1.0	0.0	False
93.962	0.0	0Suff w/o Lat.	2	93962	need	1.0	0.0	False
94.771	0.0	0Suff w/ Lat.	1	94771	perfect	1.0	0.0	False
95.696	0.0	0Suff w/o Lat.	2	95696	commerce	1.0	0.0	False
96.471	0.0	1Suff RealStemNW	15	96471	virtance	0.0	1.0	False
97.555	0.0	2Suff w/o Lat.	22	97555	helpfully	1.0	0.0	False
98.522	0.0	0Suff w/o Lat.	2	98522	cycle	1.0	0.0	False
99.389	0.0	2Suff w/o Lat.	22	99389	creatively	1.0	0.0	False
100.273	0.0	0Suff NW	4	100273	arbub	0.0	1.0	False
101.34	0.0	0Suff NW	4	101340	rebuin	0.0	1.0	False
102.19	0.0	0Suff NW	4	102190	conwode	0.0	1.0	False
102.932	0.0	1Suff w/o Lat.	12	102932	fruitless	1.0	0.0	False
103.907	0.0	2Suff w/o Lat.	22	103907	flexibility	1.0	1.0	True
104.657	0.0	1Suff w/o Lat.	12	104657	confidence	1.0	0.0	False
105.499	0.0	2Suff Composite	23	105499	classification	1.0	0.0	False
106.349	0.0	1Suff PseudoStemNW	14	106349	movectize	0.0	1.0	False
107.275	0.0	2Suff PseudoStemNW	24	107275	arpivity	0.0	1.0	False
108.117	0.0	2Suff Composite	23	108117	solipsistic	1.0	1.0	True
108.942	0.0	0Suff w/o Lat.	2	108942	virtue	1.0	0.0	False
109.834	0.0	1Suff RealStemNW	15	109834	effortable	0.0	1.0	False
110.909	0.0	0Suff NW	4	110909	omlic	0.0	1.0	False
111.684	0.0	1Suff PseudoStemNW	14	111684	comburer	0.0	1.0	False
112.56	0.0	2Suff RealStemNW	25	112560	selectously	0.0	1.0	False
113.577	0.0	2Suff RealStemNW	25	113577	nationical	0.0	0.0	True
114.485	0.0	2Suff w/o Lat.	22	114485	truthfully	1.0	0.0	False
115.419	0.0	1Suff w/o Lat.	12	115419	symbolic	1.0	0.0	False
116.311	0.0	0Suff w/o Lat.	2	116311	monument	1.0	1.0	True
117.186	0.0	1Suff PseudoStemNW	14	117186	ceantless	0.0	1.0	False
118.161	0.0	2Suff PseudoStemNW	24	118161	grearively	0.0	1.0	False
119.137	0.0	1Suff w/o Lat.	12	119137	excellent	1.0	0.0	False
120.045	0.0	2Suff PseudoStemNW	24	120045	murpifully	0.0	1.0	False
120.862	0.0	2Suff w/o Lat.	22	120862	ownership	1.0	0.0	False
121.754	0.0	0Suff NW	4	121754	feal	0.0	1.0	False
122.746	0.0	1Suff w/o Lat.	12	122746	attractive	1.0	0.0	False
123.68	0.0	1Suff PseudoStemNW	14	123680	mymbolic	0.0	1.0	False
124.605	0.0	0Suff NW	4	124605	faice	0.0	1.0	False
125.414	0.0	2Suff PseudoStemNW	24	125414	mocondarily	0.0	1.0	False
126.281	0.0	2Suff PseudoStemNW	24	126281	cladsification	0.0	1.0	False
127.089	0.0	2Suff w/o Lat.	22	127089	personally	1.0	1.0	True
128.214	0.0	1Suff w/o Lat.	12	128214	optical	1.0	0.0	False
129.29	0.0	1Suff RealStemNW	15	129290	provisate	0.0	0.0	True
130.123	0.0	2Suff w/ Lat.	21	130123	explosively	1.0	0.0	False
131.024	0.0	2Suff RealStemNW	25	131024	intentality	0.0	1.0	False
132.166	0.0	0Suff w/o Lat.	2	132166	measure	1.0	0.0	False
133.091	0.0	0Suff w/o Lat.	2	133091	comfort	1.0	0.0	False
133.975	0.0	0Suff w/o Lat.	2	133975	excel	1.0	0.0	False
134.858	0.0	0Suff w/o Lat.	2	134858	compare	1.0	0.0	False
135.667	0.0	2Suff PseudoStemNW	24	135667	melidification	0.0	1.0	False
142.069	0.0	2Suff w/o Lat.	22	142069	brokerage	1.0	1.0	True
142.986	0.0	2Suff Composite	23	142986	nullification	1.0	1.0	True
143.994	0.0	0Suff NW	4	143994	massien	0.0	0.0	True
145.003	0.0	2Suff PseudoStemNW	24	145003	kibsliness	0.0	1.0	False
145.937	0.0	2Suff PseudoStemNW	24	145937	healtily	0.0	1.0	False
146.929	0.0	2Suff RealStemNW	25	146929	explosfully	0.0	1.0	False
147.745	0.0	2Suff w/o Lat.	22	147745	righteousness	1.0	0.0	False
148.704	0.0	0Suff w/o Lat.	2	148704	truth	1.0	0.0	False
149.538	0.0	2Suff w/ Lat.	21	149538	intentional	1.0	0.0	False
150.346	0.0	2Suff RealStemNW	25	150346	ownmental	0.0	1.0	False
151.172	0.0	0Suff w/o Lat.	2	151172	power	1.0	0.0	False
151.972	0.0	2Suff RealStemNW	25	151972	endiously	0.0	0.0	True
152.789	0.0	0Suff w/o Lat.	2	152789	module	1.0	0.0	False
153.714	0.0	0Suff NW	4	153714	traphet	0.0	1.0	False
154.698	0.0	1Suff RealStemNW	15	154698	conductful	0.0	0.0	True
155.681	0.0	2Suff PseudoStemNW	24	155681	conspodively	0.0	1.0	False
156.723	0.0	0Suff NW	4	156723	seet	0.0	1.0	False
157.599	0.0	2Suff PseudoStemNW	24	157599	foptration	0.0	1.0	False
158.349	0.0	1Suff PseudoStemNW	14	158349	traphetic	0.0	1.0	False
159.174	0.0	1Suff RealStemNW	15	159174	continuic	0.0	1.0	False
159.958	0.0	0Suff w/o Lat.	2	159958	just	1.0	0.0	False
160.875	0.0	1Suff w/ Lat.	11	160875	perfection	1.0	0.0	False
161.683	0.0	0Suff NW	4	161683	pums	0.0	1.0	False
162.467	0.0	1Suff PseudoStemNW	14	162467	selveless	0.0	1.0	False
163.275	0.0	2Suff w/o Lat.	22	163275	greedily	1.0	0.0	False
164.226	0.0	0Suff w/o Lat.	2	164226	wonder	1.0	0.0	False
165.067	0.0	1Suff w/o Lat.	12	165067	tireless	1.0	0.0	False
165.901	0.0	0Suff w/o Lat.	2	165901	compute	1.0	0.0	False
166.685	0.0	2Suff RealStemNW	25	166685	couragliness	0.0	0.0	True
167.477	0.0	1Suff w/ Lat.	11	167477	presumable	1.0	0.0	False
168.285	0.0	1Suff PseudoStemNW	14	168285	seetable	0.0	0.0	True
169.21	0.0	2Suff RealStemNW	25	169210	ceaseiously	0.0	1.0	False
170.061	0.0	0Suff NW	4	170061	healt	0.0	1.0	False
170.894	0.0	0Suff w/o Lat.	2	170894	effort	1.0	0.0	False
171.795	0.0	1Suff PseudoStemNW	14	171795	indlidstive	0.0	1.0	False
172.511	0.0	1Suff RealStemNW	15	172511	comparatful	0.0	1.0	False
173.453	0.0	1Suff RealStemNW	15	173453	careable	0.0	1.0	False
174.229	0.0	2Suff w/o Lat.	22	174229	endlessly	1.0	0.0	False
175.179	0.0	2Suff PseudoStemNW	24	175179	arbumentative	0.0	1.0	False
176.038	0.0	1Suff w/o Lat.	12	176038	measurable	1.0	0.0	False
177.18	0.0	0Suff NW	4	177180	assork	0.0	1.0	False
178.03	0.0	0Suff w/o Lat.	2	178030	courage	1.0	1.0	True
178.755	0.0	1Suff w/ Lat.	11	178755	provision	1.0	0.0	False
179.647	0.0	0Suff w/ Lat.	1	179647	provide	1.0	0.0	False
180.531	0.0	1Suff w/o Lat.	12	180531	artist	1.0	0.0	False
181.364	0.0	0Suff NW	4	181364	combere	0.0	1.0	False
182.289	0.0	0Suff w/o Lat.	2	182289	industry	1.0	0.0	False
183.248	0.0	2Suff w/o Lat.	22	183248	relentlessly	1.0	1.0	True
183.94	0.0	2Suff PseudoStemNW	24	183940	tistlessly	0.0	1.0	False
185.024	0.0	2Suff RealStemNW	25	185024	identally	0.0	1.0	False
185.949	0.0	0Suff w/o Lat.	2	185949	herb	1.0	1.0	True
186.774	0.0	0Suff NW	4	186774	jok	0.0	1.0	False
187.633	0.0	2Suff PseudoStemNW	24	187633	cheherably	0.0	1.0	False
188.6	0.0	2Suff RealStemNW	25	188600	attentfully	0.0	1.0	False
189.467	0.0	1Suff PseudoStemNW	14	189467	comfernable	0.0	1.0	False
190.25	0.0	1Suff RealStemNW	15	190250	modulion	0.0	1.0	False
191.159	0.0	0Suff NW	4	191159	bruke	0.0	1.0	False
191.984	0.0	2Suff w/o Lat.	22	191984	artistic	1.0	0.0	False
193.026	0.0	0Suff NW	4	193026	ceant	0.0	0.0	True
193.951	0.0	2Suff w/o Lat.	22	193951	drunkenness	1.0	1.0	True
195.01	0.0	1Suff w/o Lat.	12	195010	instinctive	1.0	0.0	False
196.002	0.0	1Suff w/o Lat.	12	196002	respective	1.0	0.0	False
196.961	0.0	1Suff RealStemNW	15	196961	justant	0.0	1.0	False
198.003	0.0	2Suff RealStemNW	25	198003	virtuerize	0.0	1.0	False
198.895	0.0	1Suff RealStemNW	15	198895	helpable	0.0	1.0	False
199.787	0.0	1Suff w/ Lat.	11	199787	intention	1.0	0.0	False
200.87	0.0	1Suff w/ Lat.	11	200870	composite	1.0	1.0	True
201.804	0.0	2Suff w/o Lat.	22	201804	sharpener	1.0	0.0	False
202.837	0.0	2Suff Composite	23	202837	identification	1.0	0.0	False
203.854	0.0	1Suff w/ Lat.	11	203854	explosive	1.0	0.0	False
204.613	0.0	0Suff NW	4	204613	indlidst	0.0	1.0	False
205.447	0.0	2Suff PseudoStemNW	24	205447	excrodively	0.0	1.0	False
206.305	0.0	2Suff PseudoStemNW	24	206305	pimerfully	0.0	1.0	False
207.214	0.0	2Suff PseudoStemNW	24	207214	procation	0.0	1.0	False
208.498	0.0	1Suff PseudoStemNW	14	208498	cuppomary	0.0	1.0	False
209.306	0.0	0Suff NW	4	209306	movect	0.0	1.0	False
210.123	0.0	1Suff w/ Lat.	11	210123	institution	1.0	0.0	False
211.023	0.0	2Suff w/o Lat.	22	211023	assertiveness	1.0	0.0	False
212.124	0.0	2Suff w/ Lat.	21	212124	presumably	1.0	0.0	False
212.957	0.0	1Suff w/o Lat.	12	212957	justify	1.0	0.0	False
213.933	0.0	2Suff RealStemNW	25	213933	sensator	0.0	0.0	True
214.824	0.0	1Suff w/o Lat.	12	214824	clinical	1.0	0.0	False
215.716	0.0	1Suff w/ Lat.	11	215716	exception	1.0	0.0	False
216.642	0.0	1Suff w/o Lat.	12	216642	sharpen	1.0	0.0	False
217.575	0.0	2Suff RealStemNW	25	217575	careiousness	0.0	1.0	False
218.942	0.0	0Suff w/o Lat.	2	218942	exist	1.0	1.0	True
219.809	0.0	1Suff w/o Lat.	12	219809	artful	1.0	0.0	False
220.86	0.0	0Suff NW	4	220860	boofty	0.0	0.0	True
222.052	0.0	2Suff w/o Lat.	22	222052	variously	1.0	0.0	False
223.16	0.0	2Suff w/o Lat.	22	223160	sensibility	1.0	0.0	False
224.311	0.0	2Suff Composite	23	224311	victimization	1.0	0.0	False
225.211	0.0	2Suff w/o Lat.	22	225211	virtuosity	1.0	0.0	False
226.128	0.0	1Suff RealStemNW	15	226128	nationic	0.0	0.0	True
226.962	0.0	0Suff NW	4	226962	efforn	0.0	1.0	False
228.145	0.0	2Suff w/ Lat.	21	228145	perfectionism	1.0	0.0	False
229.171	0.0	2Suff RealStemNW	25	229171	unifilessly	0.0	1.0	False
230.821	0.0	2Suff w/ Lat.	21	230821	perfectionist	1.0	0.0	False
231.863	0.0	2Suff w/o Lat.	22	231863	justifiable	1.0	1.0	True
232.788	0.0	2Suff PseudoStemNW	24	232788	awnfully	0.0	1.0	False
233.914	0.0	0Suff NW	4	233914	effern	0.0	1.0	False
234.889	0.0	1Suff RealStemNW	15	234889	falsant	0.0	1.0	False
235.831	0.0	2Suff Composite	23	235831	secularization	1.0	1.0	True
236.698	0.0	2Suff w/o Lat.	22	236698	humanistic	1.0	0.0	False
237.657	0.0	2Suff PseudoStemNW	24	237657	trithfulness	0.0	1.0	False
238.707	0.0	0Suff NW	4	238707	vetcine	0.0	1.0	False
239.565	0.0	2Suff PseudoStemNW	24	239565	jistifiable	0.0	1.0	False
240.616	0.0	2Suff Composite	23	240616	identical	1.0	0.0	False
241.533	0.0	1Suff RealStemNW	15	241533	legalist	0.0	0.0	True
242.416	0.0	0Suff NW	4	242416	cronition	0.0	1.0	False
243.317	0.0	0Suff NW	4	243317	nead	0.0	1.0	False
244.192	0.0	0Suff w/o Lat.	2	244192	beauty	1.0	0.0	False
245.092	0.0	2Suff PseudoStemNW	24	245092	hettlessness	0.0	1.0	False
246.009	0.0	1Suff PseudoStemNW	14	246009	atstartive	0.0	1.0	False
246.851	0.0	2Suff RealStemNW	25	246851	criticical	0.0	1.0	False
247.726	0.0	1Suff PseudoStemNW	14	247726	indless	0.0	1.0	False
248.51	0.0	0Suff w/o Lat.	2	248510	moment	1.0	0.0	False
249.452	0.0	0Suff NW	4	249452	jist	0.0	1.0	False
250.21	0.0	0Suff NW	4	250210	vectue	0.0	1.0	False
250.986	0.0	0Suff w/o Lat.	2	250986	fortune	1.0	0.0	False
261.114	0.0	2Suff Composite	23	261114	embarkation	1.0	1.0	True
262.022	0.0	2Suff w/o Lat.	22	262022	spiritually	1.0	0.0	False
262.906	0.0	0Suff NW	4	262906	abadill	0.0	1.0	False
263.748	0.0	2Suff w/ Lat.	21	263748	expressionism	1.0	1.0	True
264.682	0.0	2Suff w/o Lat.	22	264682	stylistic	1.0	1.0	True
265.598	0.0	0Suff w/o Lat.	2	265598	lone	1.0	1.0	True
266.532	0.0	2Suff PseudoStemNW	24	266532	movectistic	0.0	1.0	False
267.416	0.0	1Suff w/o Lat.	12	267416	commercial	1.0	0.0	False
268.266	0.0	1Suff RealStemNW	15	268266	truthive	0.0	0.0	True
269.283	0.0	1Suff w/o Lat.	12	269283	slipper	1.0	0.0	False
270.275	0.0	2Suff w/o Lat.	22	270275	customarily	1.0	1.0	True
271.284	0.0	2Suff RealStemNW	25	271284	actfully	0.0	0.0	True
272.459	0.0	2Suff w/o Lat.	22	272459	fruitlessly	1.0	0.0	False
273.376	0.0	1Suff RealStemNW	15	273376	variment	0.0	1.0	False
274.61	0.0	0Suff w/o Lat.	2	274610	magic	1.0	0.0	False
275.668	0.0	2Suff PseudoStemNW	24	275668	provacional	0.0	1.0	False
276.585	0.0	1Suff PseudoStemNW	14	276585	inflisation	0.0	1.0	False
277.485	0.0	1Suff PseudoStemNW	14	277485	darberous	0.0	1.0	False
278.336	0.0	1Suff PseudoStemNW	14	278336	crerical	0.0	1.0	False
279.286	0.0	1Suff PseudoStemNW	14	279286	lumsy	0.0	1.0	False
280.17	0.0	1Suff RealStemNW	15	280170	tireable	0.0	1.0	False
281.112	0.0	1Suff PseudoStemNW	14	281112	rinchful	0.0	1.0	False
281.862	0.0	2Suff RealStemNW	25	281862	regionical	0.0	1.0	False
282.629	0.0	0Suff w/o Lat.	2	282629	admire	1.0	0.0	False
283.554	0.0	0Suff w/o Lat.	2	283554	noise	1.0	0.0	False
284.429	0.0	1Suff w/o Lat.	12	284429	attentive	1.0	0.0	False
285.346	0.0	2Suff PseudoStemNW	24	285346	comborition	0.0	1.0	False
286.33	0.0	1Suff RealStemNW	15	286330	admirless	0.0	1.0	False
287.297	0.0	2Suff PseudoStemNW	24	287297	bleadfully	0.0	1.0	False
288.264	0.0	2Suff PseudoStemNW	24	288264	janiability	0.0	1.0	False
289.114	0.0	1Suff w/o Lat.	12	289114	careful	1.0	1.0	True
290.106	0.0	2Suff PseudoStemNW	24	290106	patudation	0.0	1.0	False
291.14	0.0	2Suff w/o Lat.	22	291140	truthfulness	1.0	0.0	False
292.132	0.0	2Suff w/o Lat.	22	292132	selfishness	1.0	0.0	False
293.09	0.0	1Suff RealStemNW	15	293090	selectful	0.0	0.0	True
293.857	0.0	1Suff w/o Lat.	12	293857	helpless	1.0	0.0	False
294.716	0.0	2Suff w/o Lat.	22	294716	admirably	1.0	0.0	False
295.591	0.0	2Suff PseudoStemNW	24	295591	selvation	0.0	1.0	False
296.525	0.0	2Suff w/o Lat.	22	296525	procedural	1.0	1.0	True
297.358	0.0	2Suff PseudoStemNW	24	297358	cutfurally	0.0	1.0	False
298.459	0.0	1Suff w/o Lat.	12	298459	dreadful	1.0	0.0	False
299.334	0.0	1Suff w/o Lat.	12	299334	flexible	1.0	0.0	False
300.159	0.0	1Suff w/o Lat.	12	300159	falsify	1.0	0.0	False
301.018	0.0	2Suff w/o Lat.	22	301018	culturally	1.0	0.0	False
301.951	0.0	0Suff NW	4	301951	exprede	0.0	1.0	False
302.952	0.0	1Suff PseudoStemNW	14	302952	mocondary	0.0	1.0	False
303.944	0.0	1Suff w/o Lat.	12	303944	passionate	1.0	0.0	False
305.044	0.0	2Suff RealStemNW	25	305044	whimsally	0.0	0.0	True
305.903	0.0	2Suff w/ Lat.	21	305903	expressionist	1.0	0.0	False
306.845	0.0	1Suff w/o Lat.	12	306845	national	1.0	0.0	False
307.653	0.0	2Suff w/o Lat.	22	307653	variability	1.0	0.0	False
308.553	0.0	1Suff RealStemNW	15	308553	exceptate	0.0	0.0	True
309.404	0.0	1Suff PseudoStemNW	14	309404	expredive	0.0	1.0	False
310.296	0.0	0Suff NW	4	310296	orn	0.0	1.0	False
311.021	0.0	0Suff w/o Lat.	2	311021	instinct	1.0	0.0	False
312.096	0.0	2Suff w/o Lat.	22	312096	carelessness	1.0	0.0	False
313.038	0.0	0Suff w/o Lat.	2	313038	vary	1.0	0.0	False
313.93	0.0	2Suff PseudoStemNW	24	313930	abadilionist	0.0	1.0	False
314.814	0.0	0Suff NW	4	314814	allend	0.0	1.0	False
315.856	0.0	2Suff RealStemNW	25	315856	opticical	0.0	1.0	False
316.723	0.0	2Suff PseudoStemNW	24	316723	flivitualize	0.0	1.0	False
317.573	0.0	2Suff Composite	23	317573	quizzical	1.0	1.0	True
318.381	0.0	2Suff Composite	23	318381	filtration	1.0	1.0	True
319.398	0.0	2Suff w/o Lat.	22	319398	joyously	1.0	1.0	True
320.807	0.0	1Suff w/o Lat.	12	320807	legalize	1.0	0.0	False
321.657	0.0	1Suff w/o Lat.	12	321657	needless	1.0	0.0	False
322.508	0.0	2Suff w/o Lat.	22	322508	magically	1.0	0.0	False
323.425	0.0	1Suff RealStemNW	15	323425	causic	0.0	1.0	False
324.358	0.0	0Suff NW	4	324358	provace	0.0	1.0	False
325.242	0.0	0Suff w/o Lat.	2	325242	argue	1.0	0.0	False
326.184	0.0	0Suff w/o Lat.	2	326184	custom	1.0	0.0	False
327.001	0.0	0Suff w/o Lat.	2	327001	culture	1.0	0.0	False
327.818	0.0	2Suff PseudoStemNW	24	327818	utiethation	0.0	1.0	False
328.66	0.0	0Suff NW	4	328660	franic	0.0	1.0	False
329.768	0.0	1Suff RealStemNW	15	329768	stylify	0.0	1.0	False
330.527	0.0	1Suff w/o Lat.	12	330527	helpful	1.0	0.0	False
331.36	0.0	2Suff RealStemNW	25	331360	excessfully	0.0	1.0	False
332.327	0.0	0Suff w/o Lat.	2	332327	mercy	1.0	1.0	True
333.244	0.0	2Suff w/o Lat.	22	333244	nationally	1.0	0.0	False
334.203	0.0	1Suff PseudoStemNW	14	334203	simnify	0.0	0.0	True
335.245	0.0	0Suff NW	4	335245	pipson	0.0	1.0	False
336.12	0.0	2Suff PseudoStemNW	24	336120	efforniveness	0.0	1.0	False
337.037	0.0	0Suff w/o Lat.	2	337037	haste	1.0	1.0	True
337.804	0.0	1Suff w/o Lat.	12	337804	comical	1.0	1.0	True
338.871	0.0	0Suff w/o Lat.	2	338871	slip	1.0	0.0	False
339.805	0.0	0Suff w/o Lat.	2	339805	cease	1.0	0.0	False
340.647	0.0	1Suff w/o Lat.	12	340647	lusty	1.0	1.0	True
342.189	0.0	2Suff RealStemNW	25	342189	brokiness	0.0	1.0	False
343.364	0.0	2Suff RealStemNW	25	343364	farcally	0.0	1.0	False
344.339	0.0	2Suff PseudoStemNW	24	344339	jokfully	0.0	1.0	False
345.473	0.0	1Suff PseudoStemNW	14	345473	bleadful	0.0	0.0	True
346.582	0.0	1Suff PseudoStemNW	14	346582	selvible	0.0	1.0	False
347.465	0.0	1Suff PseudoStemNW	14	347465	pipsonal	0.0	1.0	False
348.366	0.0	1Suff w/o Lat.	12	348366	argument	1.0	0.0	False
349.374	0.0	0Suff NW	4	349374	copperce	0.0	1.0	False
350.166	0.0	0Suff w/o Lat.	2	350166	expand	1.0	0.0	False
351.108	0.0	2Suff w/o Lat.	22	351108	selectivity	1.0	0.0	False
352.3	0.0	1Suff w/o Lat.	12	352300	mournful	1.0	0.0	False
353.326	0.0	1Suff RealStemNW	15	353326	humanify	0.0	0.0	True
354.184	0.0	2Suff w/o Lat.	22	354184	actively	1.0	0.0	False
355.143	0.0	0Suff w/o Lat.	2	355143	victim	1.0	0.0	False
355.985	0.0	0Suff NW	4	355985	spip	0.0	1.0	False
356.952	0.0	1Suff PseudoStemNW	14	356952	lokely	0.0	1.0	False
357.827	0.0	2Suff RealStemNW	25	357827	lustery	0.0	1.0	False
358.902	0.0	0Suff NW	4	358902	cheher	0.0	1.0	False
359.686	0.0	2Suff PseudoStemNW	24	359686	griedily	0.0	1.0	False
360.411	0.0	1Suff w/o Lat.	12	360411	selfless	1.0	1.0	True
361.086	0.0	2Suff w/o Lat.	22	361086	passionately	1.0	0.0	False
361.911	0.0	0Suff w/o Lat.	2	361911	brute	1.0	0.0	False
362.837	0.0	2Suff w/o Lat.	22	362837	monumentally	1.0	0.0	False
363.754	0.0	0Suff w/ Lat.	1	363754	institute	1.0	0.0	False
364.554	0.0	2Suff PseudoStemNW	24	364554	seetably	0.0	1.0	False
365.546	0.0	2Suff RealStemNW	25	365546	variality	0.0	1.0	False
366.788	0.0	1Suff PseudoStemNW	14	366788	janiable	0.0	1.0	False
367.722	0.0	1Suff PseudoStemNW	14	367722	orner	0.0	1.0	False
368.539	0.0	1Suff PseudoStemNW	14	368539	omlical	0.0	1.0	False
369.364	0.0	1Suff RealStemNW	15	369364	abolitate	0.0	1.0	False
370.081	0.0	1Suff RealStemNW	15	370081	relentable	0.0	1.0	False
371.056	0.0	1Suff w/o Lat.	12	371056	wonderful	1.0	0.0	False
378.55	0.0	0Suff w/o Lat.	2	378550	act	1.0	0.0	False
379.6	0.0	0Suff NW	4	379600	conspode	0.0	1.0	False
380.509	0.0	2Suff w/o Lat.	22	380509	loveliness	1.0	1.0	True
381.543	0.0	2Suff w/o Lat.	22	381543	artfully	1.0	0.0	False
382.501	0.0	0Suff NW	4	382501	selp	0.0	1.0	False
383.485	0.0	2Suff PseudoStemNW	24	383485	cankfully	0.0	1.0	False
384.343	0.0	2Suff w/o Lat.	22	384343	optically	1.0	0.0	False
385.294	0.0	0Suff w/o Lat.	2	385294	help	1.0	0.0	False
386.161	0.0	1Suff w/o Lat.	12	386161	momentary	1.0	0.0	False
387.244	0.0	2Suff Composite	23	387244	penalization	1.0	1.0	True
388.403	0.0	0Suff w/o Lat.	2	388403	lust	1.0	0.0	False
389.637	0.0	1Suff w/o Lat.	12	389637	victimize	1.0	0.0	False
390.495	0.0	1Suff w/o Lat.	12	390495	continual	1.0	0.0	False
391.479	0.0	2Suff RealStemNW	25	391479	presumator	0.0	0.0	True
392.338	0.0	0Suff w/o Lat.	2	392338	vaccine	1.0	0.0	False
393.263	0.0	1Suff RealStemNW	15	393263	traditionic	0.0	1.0	False
394.33	0.0	2Suff PseudoStemNW	24	394330	colliffively	0.0	1.0	False
395.155	0.0	1Suff w/o Lat.	12	395155	powerful	1.0	0.0	False
395.989	0.0	0Suff w/o Lat.	2	395989	civil	1.0	0.0	False
396.831	0.0	1Suff RealStemNW	15	396831	merciable	0.0	1.0	False
397.956	0.0	0Suff NW	4	397956	murpy	0.0	1.0	False
398.931	0.0	2Suff PseudoStemNW	24	398931	arresogical	0.0	1.0	False
399.773	0.0	1Suff w/o Lat.	12	399773	righteous	1.0	0.0	False
400.748	0.0	1Suff RealStemNW	15	400748	confidious	0.0	1.0	False
401.815	0.0	1Suff w/o Lat.	12	401815	customary	1.0	0.0	False
402.766	0.0	0Suff NW	4	402766	carsh	0.0	1.0	False
403.549	0.0	2Suff RealStemNW	25	403549	industriantly	0.0	1.0	False
404.458	0.0	0Suff NW	4	404458	lums	0.0	1.0	False
405.258	0.0	0Suff NW	4	405258	dester	0.0	1.0	False
406.033	0.0	2Suff w/o Lat.	22	406033	spirituality	1.0	0.0	False
406.984	0.0	0Suff NW	4	406984	jany	0.0	1.0	False
407.901	0.0	0Suff w/ Lat.	1	407901	effect	1.0	0.0	False
408.859	0.0	0Suff NW	4	408859	elpard	0.0	1.0	False
409.685	0.0	0Suff w/o Lat.	2	409685	flex	1.0	1.0	True
410.476	0.0	0Suff w/o Lat.	2	410476	modern	1.0	0.0	False
411.343	0.0	1Suff RealStemNW	15	411343	composian	0.0	1.0	False
412.285	0.0	2Suff RealStemNW	25	412285	voyeurional	0.0	1.0	False
413.211	0.0	1Suff PseudoStemNW	14	413211	allendive	0.0	1.0	False
413.986	0.0	2Suff PseudoStemNW	24	413986	coyimally	0.0	1.0	False
414.878	0.0	0Suff NW	4	414878	ewils	0.0	1.0	False
415.678	0.0	2Suff RealStemNW	25	415678	dergadfully	0.0	1.0	False
416.495	0.0	1Suff PseudoStemNW	14	416495	griedy	0.0	1.0	False
417.212	0.0	2Suff w/o Lat.	22	417212	instinctively	1.0	0.0	False
418.17	0.0	1Suff w/o Lat.	12	418170	various	1.0	0.0	False
419.004	0.0	2Suff RealStemNW	25	419004	hierarchally	0.0	0.0	True
420.246	0.0	2Suff PseudoStemNW	24	420246	lurtilizer	0.0	1.0	False
421.221	0.0	0Suff w/ Lat.	1	421221	explode	1.0	0.0	False
422.138	0.0	2Suff PseudoStemNW	24	422138	pipsonalize	0.0	1.0	False
423.097	0.0	2Suff w/o Lat.	22	423097	civilization	1.0	0.0	False
424.047	0.0	2Suff PseudoStemNW	24	424047	perfallionism	0.0	1.0	False
424.856	0.0	0Suff NW	4	424856	simn	0.0	1.0	False
425.748	0.0	1Suff PseudoStemNW	14	425748	precukable	0.0	1.0	False
426.531	0.0	1Suff RealStemNW	15	426531	fearive	0.0	1.0	False
427.257	0.0	1Suff w/o Lat.	12	427257	sensible	1.0	1.0	True
427.974	0.0	2Suff w/o Lat.	22	427974	herbalist	1.0	0.0	False
428.932	0.0	1Suff w/o Lat.	12	428932	humanist	1.0	0.0	False
429.749	0.0	2Suff w/ Lat.	21	429749	institutional	1.0	0.0	False
430.541	0.0	2Suff w/o Lat.	22	430541	activate	1.0	0.0	False
431.375	0.0	2Suff w/o Lat.	22	431375	feverishly	1.0	0.0	False
432.358	0.0	1Suff PseudoStemNW	14	432358	obwertive	0.0	1.0	False
433.317	0.0	1Suff RealStemNW	15	433317	mercyive	0.0	1.0	False
434.284	0.0	1Suff PseudoStemNW	14	434284	londly	0.0	1.0	False
435.051	0.0	1Suff w/o Lat.	12	435051	signify	1.0	1.0	True
435.726	0.0	2Suff w/o Lat.	22	435726	noisily	1.0	0.0	False
436.893	0.0	2Suff w/o Lat.	22	436893	fearfully	1.0	0.0	False
437.835	0.0	1Suff PseudoStemNW	14	437835	sothodical	0.0	1.0	False
438.752	0.0	0Suff w/o Lat.	2	438752	attract	1.0	0.0	False
439.619	0.0	2Suff RealStemNW	25	439619	fertilability	0.0	0.0	True
440.802	0.0	2Suff Composite	23	440802	unification	1.0	0.0	False
441.769	0.0	1Suff w/o Lat.	12	441769	owner	1.0	0.0	False
442.553	0.0	2Suff RealStemNW	25	442553	objectfully	0.0	0.0	True
443.337	0.0	2Suff w/o Lat.	22	443337	falsification	1.0	0.0	False
444.112	0.0	2Suff w/ Lat.	21	444112	effectiveness	1.0	0.0	False
444.945	0.0	1Suff w/ Lat.	11	444945	objection	1.0	0.0	False
445.771	0.0	2Suff Composite	23	445771	sensation	1.0	0.0	False
446.638	0.0	1Suff w/o Lat.	12	446638	cyclic	1.0	0.0	False
447.471	0.0	2Suff PseudoStemNW	24	447471	mymbolically	0.0	1.0	False
448.48	0.0	1Suff w/o Lat.	12	448480	fearful	1.0	0.0	False
449.488	0.0	2Suff RealStemNW	25	449488	quizzally	0.0	0.0	True
450.472	0.0	1Suff PseudoStemNW	14	450472	shacten	0.0	1.0	False
451.322	0.0	1Suff w/o Lat.	12	451322	joyous	1.0	1.0	True
452.406	0.0	0Suff NW	4	452406	greard	0.0	1.0	False
453.556	0.0	1Suff w/o Lat.	12	453556	civilize	1.0	0.0	False
454.565	0.0	2Suff PseudoStemNW	24	454565	fortorately	0.0	1.0	False
455.64	0.0	2Suff w/ Lat.	21	455640	objectionable	1.0	0.0	False
456.616	0.0	1Suff PseudoStemNW	14	456616	jokful	0.0	1.0	False
457.641	0.0	2Suff RealStemNW	25	457641	victimilessly	0.0	0.0	True
458.7	0.0	0Suff NW	4	458700	byvre	0.0	1.0	False
459.658	0.0	0Suff w/o Lat.	2	459658	fruit	1.0	0.0	False
460.709	0.0	1Suff w/o Lat.	12	460709	critical	1.0	0.0	False
461.634	0.0	1Suff PseudoStemNW	14	461634	awnist	0.0	0.0	True
462.534	0.0	2Suff w/o Lat.	22	462534	beautifully	1.0	0.0	False
463.493	0.0	0Suff w/o Lat.	2	463493	tactic	1.0	0.0	False
464.426	0.0	2Suff PseudoStemNW	24	464426	flivituality	0.0	1.0	False
465.352	0.0	0Suff NW	4	465352	combore	0.0	1.0	False
466.11	0.0	2Suff PseudoStemNW	24	466110	prosodural	0.0	1.0	False
466.902	0.0	1Suff RealStemNW	15	466902	selfory	0.0	1.0	False
467.652	0.0	2Suff w/o Lat.	22	467652	cyclical	1.0	1.0	True
468.511	0.0	0Suff w/o Lat.	2	468511	tradition	1.0	0.0	False
469.478	0.0	1Suff w/o Lat.	12	469478	comparative	1.0	0.0	False
470.395	0.0	1Suff RealStemNW	15	470395	foolory	0.0	1.0	False
471.312	0.0	2Suff PseudoStemNW	24	471312	byvrical	0.0	1.0	False
472.162	0.0	1Suff w/o Lat.	12	472162	preferable	1.0	0.0	False
473.162	0.0	0Suff w/o Lat.	2	473162	sharp	1.0	0.0	False
474.046	0.0	2Suff w/o Lat.	22	474046	spiritualize	1.0	0.0	False
474.88	0.0	2Suff Composite	23	474880	limitation	1.0	0.0	False
475.713	0.0	2Suff w/o Lat.	22	475713	prophetically	1.0	0.0	False
476.622	0.0	2Suff PseudoStemNW	24	476622	movectization	0.0	1.0	False
477.639	0.0	1Suff RealStemNW	15	477639	institutate	0.0	0.0	True
478.589	0.0	2Suff w/o Lat.	22	478589	excellently	1.0	0.0	False
479.548	0.0	1Suff w/o Lat.	12	479548	lovely	1.0	0.0	False
480.381	0.0	0Suff w/o Lat.	2	480381	critic	1.0	0.0	False
481.198	0.0	0Suff NW	4	481198	hett	0.0	1.0	False
482.182	0.0	2Suff RealStemNW	25	482182	causional	0.0	1.0	False
483.182	0.0	1Suff RealStemNW	15	483182	tacticic	0.0	1.0	False
484.082	0.0	0Suff NW	4	484082	podent	0.0	1.0	False
484.916	0.0	0Suff NW	4	484916	pimer	0.0	1.0	False
485.675	0.0	0Suff NW	4	485675	fortord	0.0	1.0	False
486.533	0.0	2Suff w/ Lat.	21	486533	provisional	1.0	0.0	False
499.596	0.0	2Suff RealStemNW	25	499596	sensfulness	0.0	1.0	False
500.529	0.0	1Suff PseudoStemNW	14	500529	recrernive	0.0	1.0	False
501.288	0.0	0Suff NW	4	501288	mocond	0.0	1.0	False
502.088	0.0	2Suff Composite	23	502088	valuation	1.0	0.0	False
503.013	0.0	2Suff PseudoStemNW	24	503013	effornively	0.0	0.0	True
503.897	0.0	2Suff RealStemNW	25	503897	useiously	0.0	1.0	False
504.764	0.0	0Suff w/o Lat.	2	504764	sense	1.0	0.0	False
505.714	0.0	1Suff PseudoStemNW	14	505714	broler	0.0	1.0	False
506.748	0.0	2Suff RealStemNW	25	506748	tacticical	0.0	1.0	False
507.656	0.0	1Suff RealStemNW	15	507656	civilist	0.0	1.0	False
508.707	0.0	1Suff w/o Lat.	12	508707	lucky	1.0	1.0	True
509.482	0.0	1Suff RealStemNW	15	509482	exclusful	0.0	1.0	False
510.441	0.0	1Suff w/ Lat.	11	510441	excessive	1.0	0.0	False
511.416	0.0	2Suff RealStemNW	25	511416	assertishness	0.0	1.0	False
512.4	0.0	2Suff RealStemNW	25	512400	loneionist	0.0	1.0	False
513.266	0.0	1Suff w/o Lat.	12	513266	regional	1.0	0.0	False
514.233	0.0	0Suff w/o Lat.	2	514233	breath	1.0	1.0	True
515.084	0.0	2Suff w/o Lat.	22	515084	carelessly	1.0	0.0	False
516.084	0.0	2Suff Composite	23	516084	probation	1.0	0.0	False
517.084	0.0	1Suff PseudoStemNW	14	517084	brealtless	0.0	1.0	False
518.026	0.0	0Suff NW	4	518026	cutfure	0.0	1.0	False
519.135	0.0	2Suff PseudoStemNW	24	519135	lokeliness	0.0	1.0	False
519.935	0.0	2Suff w/o Lat.	22	519935	courageously	1.0	0.0	False
520.877	0.0	0Suff NW	4	520877	flivit	0.0	1.0	False
521.844	0.0	0Suff NW	4	521844	colliff	0.0	1.0	False
522.644	0.0	0Suff w/ Lat.	1	522644	intend	1.0	0.0	False
523.586	0.0	2Suff w/o Lat.	22	523586	mercifully	1.0	0.0	False
524.628	0.0	0Suff NW	4	524628	sedule	0.0	1.0	False
525.445	0.0	2Suff RealStemNW	25	525445	nationantly	0.0	0.0	True
526.529	0.0	1Suff w/o Lat.	12	526529	variable	1.0	1.0	True
527.379	0.0	2Suff PseudoStemNW	24	527379	flivitually	0.0	1.0	False
528.396	0.0	2Suff w/o Lat.	22	528396	lustily	1.0	1.0	True
529.321	0.0	0Suff NW	4	529321	sothod	0.0	1.0	False
530.205	0.0	0Suff NW	4	530205	feam	0.0	1.0	False
530.989	0.0	1Suff PseudoStemNW	14	530989	vetcinate	0.0	1.0	False
531.73	0.0	1Suff w/o Lat.	12	531730	sensual	1.0	0.0	False
532.739	0.0	0Suff NW	4	532739	exfapt	0.0	1.0	False
533.573	0.0	2Suff w/o Lat.	22	533573	joyfully	1.0	0.0	False
534.548	0.0	1Suff w/o Lat.	12	534548	classic	1.0	0.0	False
535.457	0.0	0Suff NW	4	535457	esress	0.0	0.0	True
536.257	0.0	1Suff w/o Lat.	12	536257	stylist	1.0	0.0	False
537.299	0.0	2Suff w/o Lat.	22	537299	computerize	1.0	0.0	False
538.191	0.0	0Suff w/ Lat.	1	538191	express	1.0	0.0	False
538.991	0.0	0Suff NW	4	538991	gried	0.0	1.0	False
540.058	0.0	2Suff w/o Lat.	22	540058	attentively	1.0	0.0	False
541.042	0.0	2Suff w/o Lat.	22	541042	senselessly	1.0	0.0	False
542.567	0.0	2Suff RealStemNW	25	542567	admirical	0.0	0.0	True
543.492	0.0	1Suff RealStemNW	15	543492	creatful	0.0	1.0	False
544.534	0.0	0Suff w/o Lat.	2	544534	human	1.0	0.0	False
545.743	0.0	1Suff RealStemNW	15	545743	commerceic	0.0	1.0	False
546.668	0.0	2Suff w/o Lat.	22	546668	momentarily	1.0	0.0	False
547.644	0.0	0Suff w/o Lat.	2	547644	cause	1.0	0.0	False
548.611	0.0	2Suff w/o Lat.	22	548611	commercialism	1.0	0.0	False
549.453	0.0	0Suff NW	4	549453	clade	0.0	1.0	False
550.62	0.0	2Suff RealStemNW	25	550620	noticeator	0.0	1.0	False
551.42	0.0	0Suff w/o Lat.	2	551420	collect	1.0	0.0	False
552.345	0.0	0Suff NW	4	552345	luds	0.0	1.0	False
553.137	0.0	1Suff RealStemNW	15	553137	victimist	0.0	0.0	True
554.121	0.0	2Suff PseudoStemNW	24	554121	conwodential	0.0	1.0	False
555.054	0.0	2Suff Composite	23	555054	computation	1.0	0.0	False
556.413	0.0	2Suff w/o Lat.	22	556413	uselessly	1.0	0.0	False
557.555	0.0	0Suff NW	4	557555	nolfs	0.0	1.0	False
558.489	0.0	0Suff NW	4	558489	darber	0.0	1.0	False
559.322	0.0	2Suff w/o Lat.	22	559322	personality	1.0	0.0	False
560.406	0.0	2Suff PseudoStemNW	24	560406	gunderfully	0.0	1.0	False
561.273	0.0	2Suff w/o Lat.	22	561273	fertilization	1.0	0.0	False
562.307	0.0	2Suff w/o Lat.	22	562307	sensuality	1.0	0.0	False
563.465	0.0	1Suff RealStemNW	15	563465	modernate	0.0	0.0	True
564.457	0.0	2Suff PseudoStemNW	24	564457	paragewical	0.0	1.0	False
565.458	0.0	2Suff PseudoStemNW	24	565458	ludsily	0.0	1.0	False
566.383	0.0	2Suff w/o Lat.	22	566383	measurably	1.0	0.0	False
567.433	0.0	1Suff RealStemNW	15	567433	noticeless	0.0	0.0	True
568.467	0.0	1Suff RealStemNW	15	568467	effectful	0.0	0.0	True
569.625	0.0	2Suff w/o Lat.	22	569625	heartily	1.0	0.0	False
570.742	0.0	1Suff w/o Lat.	12	570742	merciless	1.0	0.0	False
571.626	0.0	2Suff PseudoStemNW	24	571626	spippery	0.0	1.0	False
572.735	0.0	0Suff NW	4	572735	tist	0.0	1.0	False
573.685	0.0	0Suff w/o Lat.	2	573685	relent	1.0	0.0	False
574.627	0.0	2Suff PseudoStemNW	24	574627	hettlessly	0.0	1.0	False
575.627	0.0	2Suff w/o Lat.	22	575627	foolishness	1.0	0.0	False
576.678	0.0	2Suff RealStemNW	25	576678	foolality	0.0	1.0	False
577.653	0.0	0Suff w/ Lat.	1	577653	compose	1.0	0.0	False
578.637	0.0	1Suff w/o Lat.	12	578637	fertilize	1.0	0.0	False
579.62	0.0	2Suff Composite	23	579620	maturation	1.0	1.0	True
580.779	0.0	2Suff w/o Lat.	22	580779	commercially	1.0	0.0	False
581.879	0.0	2Suff PseudoStemNW	24	581879	pipsonally	0.0	1.0	False
582.788	0.0	2Suff RealStemNW	25	582788	useiveness	0.0	1.0	False
583.413	0.0	2Suff PseudoStemNW	24	583413	navounalism	0.0	1.0	False
584.213	0.0	0Suff NW	4	584213	adnise	0.0	1.0	False
584.972	0.0	2Suff PseudoStemNW	24	584972	shactener	0.0	1.0	False
585.564	0.0	2Suff Composite	23	585564	hierarchical	1.0	1.0	True
586.281	0.0	2Suff w/o Lat.	22	586281	suitably	1.0	1.0	True
587.556	0.0	2Suff RealStemNW	25	587556	neediously	0.0	1.0	False
589.207	0.0	0Suff w/o Lat.	2	589207	fear	1.0	0.0	False
590.09	0.0	1Suff RealStemNW	15	590090	drunkor	0.0	1.0	False
591.007	0.0	0Suff w/o Lat.	2	591007	abolish	1.0	0.0	False
591.982	0.0	1Suff w/o Lat.	12	591982	magical	1.0	0.0	False
592.983	0.0	1Suff w/o Lat.	12	592983	foolish	1.0	0.0	False
593.8	0.0	2Suff RealStemNW	25	593800	effortiously	0.0	0.0	True
594.625	0.0	2Suff w/o Lat.	22	594625	continually	1.0	0.0	False
595.567	0.0	0Suff NW	4	595567	creric	0.0	1.0	False
596.559	0.0	2Suff w/o Lat.	22	596559	ceaselessly	1.0	0.0	False
597.784	0.0	2Suff RealStemNW	25	597784	joyality	0.0	1.0	False
598.768	0.0	1Suff w/o Lat.	12	598768	causal	1.0	0.0	False
599.768	0.0	1Suff w/o Lat.	12	599768	fortunate	1.0	0.0	False
600.768	0.0	2Suff RealStemNW	25	600768	synchronilessly	0.0	1.0	False
601.744	0.0	2Suff RealStemNW	25	601744	customantly	0.0	0.0	True
602.844	0.0	2Suff PseudoStemNW	24	602844	jistification	0.0	1.0	False
603.711	0.0	2Suff Composite	23	603711	orientation	1.0	1.0	True
604.528	0.0	0Suff NW	4	604528	sarument	0.0	1.0	False
605.445	0.0	2Suff w/o Lat.	22	605445	collectively	1.0	0.0	False
606.395	0.0	2Suff w/o Lat.	22	606395	rightfully	1.0	0.0	False
607.395	0.0	2Suff PseudoStemNW	24	607395	sedulation	0.0	1.0	False
608.346	0.0	2Suff RealStemNW	25	608346	noisery	0.0	1.0	False
609.204	0.0	2Suff w/o Lat.	22	609204	masterfully	1.0	1.0	True
610.013	0.0	1Suff w/o Lat.	12	610013	joyful	1.0	0.0	False
610.905	0.0	2Suff PseudoStemNW	24	610905	feamfully	0.0	1.0	False
611.73	0.0	2Suff RealStemNW	25	611730	actional	0.0	0.0	True
612.68	0.0	0Suff w/o Lat.	2	612680	FALSE	1.0	0.0	False
624.342	0.0	0Suff NW	4	624342	rinch	0.0	1.0	False
625.359	0.0	0Suff NW	4	625359	lond	0.0	1.0	False
626.168	0.0	1Suff w/o Lat.	12	626168	hearty	1.0	1.0	True
627.068	0.0	1Suff w/o Lat.	12	627068	hasty	1.0	0.0	False
628.085	0.0	2Suff Composite	23	628085	synchronization	1.0	0.0	False
628.96	0.0	1Suff w/o Lat.	12	628960	traditional	1.0	0.0	False
629.769	0.0	2Suff RealStemNW	25	629769	selectfully	0.0	0.0	True
630.528	0.0	2Suff w/o Lat.	22	630528	personalize	1.0	0.0	False
631.353	0.0	2Suff RealStemNW	25	631353	suitfulness	0.0	1.0	False
632.245	0.0	2Suff w/ Lat.	21	632245	exclusively	1.0	1.0	True
633.095	0.0	1Suff PseudoStemNW	14	633095	nolfy	0.0	1.0	False
633.987	0.0	0Suff NW	4	633987	hunen	0.0	1.0	False
634.929	0.0	1Suff w/o Lat.	12	634929	prophetic	1.0	0.0	False
635.879	0.0	1Suff w/o Lat.	12	635879	industrial	1.0	0.0	False
636.788	0.0	2Suff Composite	23	636788	ordination	1.0	0.0	False
637.563	0.0	1Suff RealStemNW	15	637563	selfable	0.0	1.0	False
638.505	0.0	1Suff w/o Lat.	12	638505	personal	1.0	0.0	False
639.339	0.0	2Suff RealStemNW	25	639339	magicical	0.0	1.0	False
640.272	0.0	2Suff w/o Lat.	22	640272	dreadfully	1.0	0.0	False
641.106	0.0	1Suff w/o Lat.	12	641106	noisy	1.0	0.0	False
642.039	0.0	1Suff PseudoStemNW	14	642039	eschession	0.0	1.0	False
642.906	0.0	1Suff RealStemNW	15	642906	careive	0.0	1.0	False
643.748	0.0	1Suff w/o Lat.	12	643748	effortless	1.0	0.0	False
644.707	0.0	1Suff PseudoStemNW	14	644707	brukal	0.0	1.0	False
645.699	0.0	1Suff w/o Lat.	12	645699	monumental	1.0	0.0	False
646.649	0.0	1Suff RealStemNW	15	646649	fortunion	0.0	1.0	False
647.458	0.0	2Suff w/o Lat.	22	647458	mournfully	1.0	1.0	True
648.266	0.0	1Suff RealStemNW	15	648266	powerive	0.0	0.0	True
649.192	0.0	0Suff w/ Lat.	1	649192	exclude	1.0	0.0	False
650.25	0.0	0Suff NW	4	650250	victap	0.0	1.0	False
651.592	0.0	1Suff w/o Lat.	12	651592	secondary	1.0	0.0	False
652.476	0.0	2Suff PseudoStemNW	24	652476	perfallionist	0.0	1.0	False
653.285	0.0	2Suff w/ Lat.	21	653285	excessively	1.0	0.0	False
654.21	0.0	0Suff NW	4	654210	perfall	0.0	1.0	False
655.085	0.0	2Suff w/o Lat.	22	655085	sensibly	1.0	1.0	True
655.919	0.0	1Suff w/o Lat.	12	655919	selfish	1.0	0.0	False
656.794	0.0	2Suff Composite	23	656794	fortification	1.0	0.0	False
657.594	0.0	0Suff NW	4	657594	indolsty	0.0	1.0	False
658.495	0.0	2Suff w/o Lat.	22	658495	suitability	1.0	0.0	False
659.361	0.0	2Suff RealStemNW	25	659361	exceptality	0.0	1.0	False
660.428	0.0	2Suff PseudoStemNW	24	660428	moolurably	0.0	1.0	False
661.362	0.0	0Suff NW	4	661362	brole	0.0	1.0	False
662.179	0.0	0Suff NW	4	662179	eschess	0.0	1.0	False
662.971	0.0	1Suff w/o Lat.	12	662971	masterful	1.0	1.0	True
663.663	0.0	1Suff w/o Lat.	12	663663	continuous	1.0	0.0	False
664.571	0.0	2Suff w/o Lat.	22	664571	significance	1.0	0.0	False
665.488	0.0	1Suff w/o Lat.	12	665488	rightful	1.0	0.0	False
666.305	0.0	0Suff NW	4	666305	slex	0.0	0.0	True
667.064	0.0	2Suff w/o Lat.	22	667064	modulation	1.0	1.0	True
668.022	0.0	0Suff w/o Lat.	2	668022	heart	1.0	1.0	True
668.798	0.0	0Suff w/o Lat.	2	668798	method	1.0	0.0	False
669.69	0.0	0Suff NW	4	669690	cank	0.0	0.0	True
670.698	0.0	0Suff w/ Lat.	1	670698	excess	1.0	1.0	True
671.84	0.0	0Suff w/o Lat.	2	671840	art	1.0	0.0	False
672.832	0.0	1Suff PseudoStemNW	14	672832	booftiful	0.0	1.0	False
673.649	0.0	2Suff Composite	23	673649	altercation	1.0	1.0	True
674.591	0.0	2Suff Composite	23	674591	whimsical	1.0	0.0	False
675.666	0.0	2Suff w/o Lat.	22	675666	respectively	1.0	0.0	False
676.508	0.0	1Suff w/ Lat.	11	676508	conductive	1.0	0.0	False
677.392	0.0	2Suff w/o Lat.	22	677392	symbolically	1.0	0.0	False
678.309	0.0	1Suff w/o Lat.	12	678309	relentless	1.0	0.0	False
679.126	0.0	2Suff PseudoStemNW	24	679126	faicification	0.0	0.0	True
679.893	0.0	0Suff NW	4	679893	kibs	0.0	1.0	False
680.735	0.0	2Suff w/o Lat.	22	680735	continuously	1.0	1.0	True
681.618	0.0	0Suff w/ Lat.	1	681618	conclude	1.0	0.0	False
682.527	0.0	2Suff PseudoStemNW	24	682527	blunkenness	0.0	1.0	False
683.461	0.0	0Suff w/o Lat.	2	683461	clinic	1.0	1.0	True
684.503	0.0	2Suff RealStemNW	25	684503	feverality	0.0	1.0	False
685.745	0.0	0Suff NW	4	685745	moolure	0.0	1.0	False
686.645	0.0	2Suff w/o Lat.	22	686645	brutality	1.0	0.0	False
687.487	0.0	2Suff PseudoStemNW	24	687487	navounality	0.0	1.0	False
688.437	0.0	0Suff NW	4	688437	mourd	0.0	1.0	False
689.346	0.0	0Suff NW	4	689346	herf	0.0	1.0	False
690.154	0.0	2Suff w/o Lat.	22	690154	vaccination	1.0	0.0	False
691.138	0.0	1Suff RealStemNW	15	691138	needable	0.0	1.0	False
691.888	0.0	0Suff w/o Lat.	2	691888	symbol	1.0	0.0	False
692.713	0.0	1Suff w/ Lat.	11	692713	objective	1.0	0.0	False
693.689	0.0	0Suff w/o Lat.	2	693689	fool	1.0	0.0	False
694.564	0.0	2Suff PseudoStemNW	24	694564	fipitation	0.0	1.0	False
695.489	0.0	2Suff w/o Lat.	22	695489	wonderfully	1.0	0.0	False
696.348	0.0	2Suff w/o Lat.	22	696348	mercilessly	1.0	0.0	False
697.281	0.0	2Suff w/o Lat.	22	697281	comparatively	1.0	0.0	False
698.107	0.0	2Suff RealStemNW	25	698107	humanional	0.0	1.0	False
699.107	0.0	2Suff w/o Lat.	22	699107	comically	1.0	1.0	True
699.949	0.0	1Suff w/ Lat.	11	699949	effective	1.0	0.0	False
700.824	0.0	2Suff Composite	23	700824	solidification	1.0	0.0	False
701.758	0.0	1Suff w/o Lat.	12	701758	truthful	1.0	0.0	False
702.583	0.0	0Suff w/o Lat.	2	702583	notice	1.0	0.0	False
703.367	0.0	2Suff w/o Lat.	22	703367	nationalism	1.0	0.0	False
704.175	0.0	0Suff w/o Lat.	2	704175	passion	1.0	0.0	False
704.951	0.0	2Suff w/o Lat.	22	704951	regionally	1.0	0.0	False
705.759	0.0	2Suff w/o Lat.	22	705759	confidential	1.0	0.0	False
706.551	0.0	1Suff RealStemNW	15	706551	industryic	0.0	0.0	True
707.251	0.0	2Suff w/o Lat.	22	707251	creativity	1.0	0.0	False
708.118	0.0	2Suff PseudoStemNW	24	708118	cronitionally	0.0	1.0	False
709.152	0.0	2Suff w/o Lat.	22	709152	fertilizer	1.0	1.0	True
710.185	0.0	1Suff w/o Lat.	12	710185	brutal	1.0	0.0	False
711.152	0.0	2Suff w/o Lat.	22	711152	slippery	1.0	0.0	False
712.011	0.0	2Suff w/ Lat.	21	712011	objectively	1.0	0.0	False
712.77	0.0	2Suff PseudoStemNW	24	712770	flivitualism	0.0	1.0	False
713.803	0.0	0Suff w/o Lat.	2	713803	care	1.0	0.0	False
714.762	0.0	2Suff w/o Lat.	22	714762	classical	1.0	0.0	False
715.662	0.0	1Suff RealStemNW	15	715662	helpive	0.0	1.0	False
716.604	0.0	1Suff w/o Lat.	12	716604	purify	1.0	0.0	False
717.621	0.0	0Suff NW	4	717621	awn	0.0	1.0	False
718.696	0.0	2Suff PseudoStemNW	24	718696	excrodiveness	0.0	1.0	False
719.722	0.0	0Suff w/o Lat.	2	719722	style	1.0	0.0	False
720.764	0.0	0Suff NW	4	720764	nolave	0.0	1.0	False
721.631	0.0	2Suff PseudoStemNW	24	721631	atstartively	0.0	1.0	False
722.406	0.0	1Suff PseudoStemNW	14	722406	flivitual	0.0	1.0	False
723.164	0.0	2Suff PseudoStemNW	24	723164	sarumentally	0.0	1.0	False
723.873	0.0	1Suff w/ Lat.	11	723873	exclusive	1.0	1.0	True
724.565	0.0	2Suff w/o Lat.	22	724565	commercialize	1.0	0.0	False
725.515	0.0	2Suff PseudoStemNW	24	725515	selvuality	0.0	1.0	False
726.424	0.0	2Suff RealStemNW	25	726424	continliness	0.0	1.0	False
727.266	0.0	2Suff PseudoStemNW	24	727266	rincheousness	0.0	1.0	False
728.008	0.0	2Suff Composite	23	728008	paradoxical	1.0	1.0	True
728.758	0.0	1Suff PseudoStemNW	14	728758	rebuinal	0.0	1.0	False
729.533	0.0	2Suff RealStemNW	25	729533	penalilessly	0.0	1.0	False
740.453	0.0	0Suff w/o Lat.	2	740453	tire	1.0	0.0	False
741.537	0.0	1Suff RealStemNW	15	741537	monumentic	0.0	0.0	True
742.445	0.0	2Suff RealStemNW	25	742445	artional	0.0	1.0	False
743.421	0.0	2Suff w/o Lat.	22	743421	loneliness	1.0	0.0	False
744.388	0.0	1Suff w/o Lat.	12	744388	modulate	1.0	0.0	False
745.371	0.0	1Suff w/o Lat.	12	745371	admirable	1.0	0.0	False
746.172	0.0	0Suff NW	4	746172	tedal	0.0	1.0	False
747.122	0.0	2Suff RealStemNW	25	747122	brutional	0.0	1.0	False
747.939	0.0	1Suff w/o Lat.	12	747939	endless	1.0	0.0	False
748.847	0.0	2Suff w/o Lat.	22	748847	methodically	1.0	0.0	False
749.848	0.0	2Suff Composite	23	749848	degradation	1.0	0.0	False
750.848	0.0	0Suff w/o Lat.	2	750848	comic	1.0	0.0	False
751.732	0.0	1Suff RealStemNW	15	751732	magicic	0.0	1.0	False
752.682	0.0	2Suff RealStemNW	25	752682	prophetionist	0.0	0.0	True
753.857	0.0	2Suff RealStemNW	25	753857	stylional	0.0	1.0	False
754.866	0.0	1Suff w/o Lat.	12	754866	lonely	1.0	0.0	False
755.891	0.0	2Suff w/ Lat.	21	755891	exclusiveness	1.0	0.0	False
756.9	0.0	1Suff PseudoStemNW	14	756900	hainy	0.0	1.0	False
757.733	0.0	2Suff PseudoStemNW	24	757733	darberously	0.0	1.0	False
758.592	0.0	2Suff PseudoStemNW	24	758592	hettfully	0.0	1.0	False
759.342	0.0	2Suff RealStemNW	25	759342	expressmental	0.0	1.0	False
760.243	0.0	0Suff NW	4	760243	haint	0.0	1.0	False
761.059	0.0	1Suff PseudoStemNW	14	761059	arbument	0.0	1.0	False
761.926	0.0	2Suff w/o Lat.	22	761926	foolishly	1.0	1.0	True
762.71	0.0	2Suff w/o Lat.	22	762710	selectively	1.0	0.0	False
763.635	0.0	2Suff w/o Lat.	22	763635	usefulness	1.0	0.0	False
764.394	0.0	0Suff NW	4	764394	onnend	0.0	1.0	False
765.277	0.0	2Suff RealStemNW	25	765277	inspiratality	0.0	1.0	False
766.353	0.0	2Suff w/o Lat.	22	766353	luckily	1.0	0.0	False
767.361	0.0	2Suff RealStemNW	25	767361	vulgarilessly	0.0	1.0	False
768.178	0.0	2Suff PseudoStemNW	24	768178	retendlessly	0.0	1.0	False
769.112	0.0	2Suff Composite	23	769112	annexation	1.0	1.0	True
769.937	0.0	1Suff w/o Lat.	12	769937	drunken	1.0	0.0	False
770.812	0.0	0Suff NW	4	770812	lecer	0.0	1.0	False
771.788	0.0	1Suff RealStemNW	15	771788	fertilist	0.0	0.0	True
772.921	0.0	0Suff w/o Lat.	2	772921	master	1.0	0.0	False
773.822	0.0	1Suff RealStemNW	15	773822	kinden	0.0	0.0	True
774.614	0.0	0Suff w/o Lat.	2	774614	fertile	1.0	0.0	False
775.639	0.0	1Suff PseudoStemNW	14	775639	selvual	0.0	1.0	False
776.623	0.0	2Suff PseudoStemNW	24	776623	sothodically	0.0	1.0	False
777.406	0.0	0Suff NW	4	777406	combure	0.0	1.0	False
778.24	0.0	2Suff Composite	23	778240	purification	1.0	1.0	True
778.99	0.0	0Suff NW	4	778990	cuppom	0.0	1.0	False
779.782	0.0	2Suff PseudoStemNW	24	779782	pogularization	0.0	1.0	False
780.682	0.0	0Suff w/o Lat.	2	780682	select	1.0	0.0	False
781.557	0.0	1Suff w/o Lat.	12	781557	noticeable	1.0	0.0	False
782.524	0.0	0Suff w/ Lat.	1	782524	inspire	1.0	0.0	False
783.358	0.0	2Suff w/ Lat.	21	783358	inspirational	1.0	0.0	False
784.15	0.0	1Suff w/o Lat.	12	784150	assertive	1.0	0.0	False
785.134	0.0	1Suff RealStemNW	15	785134	momentish	0.0	1.0	False
786.284	0.0	1Suff w/o Lat.	12	786284	selective	1.0	0.0	False
787.134	0.0	2Suff w/o Lat.	22	787134	modernization	1.0	0.0	False
787.943	0.0	2Suff w/ Lat.	21	787943	conclusively	1.0	0.0	False
788.743	0.0	2Suff RealStemNW	25	788743	commerceantly	0.0	1.0	False
789.752	0.0	2Suff PseudoStemNW	24	789752	vetcination	0.0	1.0	False
790.685	0.0	2Suff w/o Lat.	22	790685	legalization	1.0	0.0	False
791.661	0.0	1Suff RealStemNW	15	791661	assertful	0.0	0.0	True
792.527	0.0	1Suff w/o Lat.	12	792527	creative	1.0	0.0	False
793.336	0.0	2Suff RealStemNW	25	793336	classally	0.0	0.0	True
794.111	0.0	0Suff NW	4	794111	blunk	0.0	1.0	False
795.062	0.0	2Suff RealStemNW	25	795062	instinctfully	0.0	1.0	False
795.829	0.0	2Suff RealStemNW	25	795829	respectfully	0.0	0.0	True
796.695	0.0	1Suff w/o Lat.	12	796695	virtuous	1.0	0.0	False
797.496	0.0	1Suff RealStemNW	15	797496	mournive	0.0	1.0	False
798.546	0.0	2Suff w/ Lat.	21	798546	effectively	1.0	0.0	False
799.405	0.0	1Suff PseudoStemNW	14	799405	obwertion	0.0	1.0	False
800.297	0.0	2Suff w/o Lat.	22	800297	helplessness	1.0	0.0	False
801.238	0.0	0Suff NW	4	801238	atstart	0.0	1.0	False
802.364	0.0	2Suff Composite	23	802364	voyeuristic	1.0	1.0	True
803.131	0.0	1Suff PseudoStemNW	14	803131	jokous	0.0	1.0	False
803.923	0.0	0Suff NW	4	803923	exfal	0.0	1.0	False
804.665	0.0	2Suff w/o Lat.	22	804665	attractively	1.0	0.0	False
805.707	0.0	0Suff NW	4	805707	obwert	0.0	1.0	False
806.598	0.0	1Suff w/ Lat.	11	806598	inspiration	1.0	0.0	False
807.565	0.0	1Suff RealStemNW	15	807565	purant	0.0	1.0	False
808.232	0.0	1Suff w/o Lat.	12	808232	breathless	1.0	0.0	False
809.166	0.0	1Suff w/o Lat.	12	809166	careless	1.0	1.0	True
810.075	0.0	2Suff RealStemNW	25	810075	fruitiously	0.0	1.0	False
811.15	0.0	1Suff PseudoStemNW	14	811150	arpive	0.0	1.0	False
812.033	0.0	2Suff w/o Lat.	22	812033	significant	1.0	0.0	False
812.909	0.0	0Suff w/o Lat.	2	812909	continue	1.0	0.0	False
813.742	0.0	2Suff RealStemNW	25	813742	selfiveness	0.0	1.0	False
814.818	0.0	2Suff RealStemNW	25	814818	breathiously	0.0	1.0	False
815.651	0.0	1Suff PseudoStemNW	14	815651	coyimal	0.0	1.0	False
816.418	0.0	2Suff RealStemNW	25	816418	signiousness	0.0	1.0	False
817.335	0.0	0Suff w/o Lat.	2	817335	broke	1.0	1.0	True
818.094	0.0	1Suff RealStemNW	15	818094	flexless	0.0	1.0	False
819.036	0.0	1Suff PseudoStemNW	14	819036	ludsy	0.0	1.0	False
819.886	0.0	1Suff PseudoStemNW	14	819886	awnful	0.0	1.0	False
820.694	0.0	0Suff w/o Lat.	2	820694	right	1.0	0.0	False
821.628	0.0	0Suff w/o Lat.	2	821628	dread	1.0	0.0	False
822.52	0.0	0Suff w/o Lat.	2	822520	self	1.0	0.0	False
823.337	0.0	0Suff NW	4	823337	gunder	0.0	1.0	False
824.229	0.0	2Suff w/o Lat.	22	824229	industrialist	1.0	0.0	False
825.104	0.0	1Suff w/o Lat.	12	825104	spiritual	1.0	0.0	False
825.988	0.0	2Suff PseudoStemNW	24	825988	contitually	0.0	0.0	True
826.821	0.0	0Suff w/o Lat.	2	826821	confide	1.0	0.0	False
827.838	0.0	0Suff NW	4	827838	coyim	0.0	1.0	False
828.605	0.0	2Suff Composite	23	828605	vulgarization	1.0	0.0	False
829.564	0.0	0Suff w/o Lat.	2	829564	luck	1.0	0.0	False
830.464	0.0	0Suff w/o Lat.	2	830464	fever	1.0	0.0	False
831.273	0.0	0Suff w/o Lat.	2	831273	class	1.0	0.0	False
831.998	0.0	2Suff Composite	23	831998	allegorical	1.0	0.0	False
832.848	0.0	2Suff RealStemNW	25	832848	signmentive	0.0	0.0	True
833.64	0.0	0Suff w/o Lat.	2	833640	region	1.0	0.0	False
834.615	0.0	2Suff w/o Lat.	22	834615	activity	1.0	0.0	False
835.391	0.0	2Suff RealStemNW	25	835391	civilability	0.0	0.0	True
836.474	0.0	2Suff w/o Lat.	22	836474	existential	1.0	0.0	False
837.241	0.0	0Suff w/o Lat.	2	837241	nation	1.0	0.0	False
838.008	0.0	1Suff PseudoStemNW	14	838008	elpardive	0.0	0.0	True
838.792	0.0	1Suff w/o Lat.	12	838792	feverish	1.0	1.0	True
839.592	0.0	0Suff w/o Lat.	2	839592	mourn	1.0	0.0	False
840.392	0.0	0Suff w/o Lat.	2	840392	prophet	1.0	0.0	False
841.209	0.0	0Suff NW	4	841209	pacic	0.0	1.0	False
842.226	0.0	1Suff w/o Lat.	12	842226	computer	1.0	0.0	False
843.085	0.0	2Suff w/o Lat.	22	843085	dangerously	1.0	0.0	False
843.952	0.0	0Suff w/o Lat.	2	843952	create	1.0	0.0	False
844.735	0.0	2Suff w/o Lat.	22	844735	carefully	1.0	0.0	False
845.502	0.0	1Suff w/ Lat.	11	845502	conclusive	1.0	0.0	False
856.481	0.0	2Suff RealStemNW	25	856481	momentantly	0.0	0.0	True
857.489	0.0	1Suff RealStemNW	15	857489	fruitable	0.0	0.0	True
858.464	0.0	0Suff NW	4	858464	recrern	0.0	1.0	False
859.631	0.0	0Suff w/o Lat.	2	859631	assert	1.0	0.0	False
860.69	0.0	2Suff PseudoStemNW	24	860690	rinchfully	0.0	1.0	False
861.649	0.0	1Suff PseudoStemNW	14	861649	moolurable	0.0	1.0	False
862.566	0.0	1Suff w/o Lat.	12	862566	comfortable	1.0	0.0	False
863.483	0.0	2Suff w/o Lat.	22	863483	expansiveness	1.0	0.0	False
864.391	0.0	2Suff w/o Lat.	22	864391	breathlessly	1.0	0.0	False
865.367	0.0	0Suff NW	4	865367	brealt	0.0	1.0	False
866.292	0.0	0Suff NW	4	866292	inflise	0.0	1.0	False
867.175	0.0	2Suff RealStemNW	25	867175	valufully	0.0	1.0	False
868.067	0.0	2Suff w/ Lat.	21	868067	conductivity	1.0	1.0	True
868.976	0.0	1Suff RealStemNW	15	868976	perfectate	0.0	0.0	True
870.31	0.0	1Suff PseudoStemNW	14	870310	desterful	0.0	1.0	False
871.293	0.0	2Suff RealStemNW	25	871293	flexfulness	0.0	1.0	False
872.227	0.0	2Suff RealStemNW	25	872227	drunkoral	0.0	1.0	False
873.052	0.0	2Suff RealStemNW	25	873052	embarkfully	0.0	1.0	False
873.861	0.0	1Suff w/o Lat.	12	873861	dangerous	1.0	0.0	False
874.911	0.0	2Suff w/o Lat.	22	874911	powerfully	1.0	0.0	False
875.753	0.0	1Suff w/o Lat.	12	875753	expansive	1.0	0.0	False
876.537	0.0	2Suff w/o Lat.	22	876537	effortlessly	1.0	0.0	False
877.337	0.0	0Suff NW	4	877337	inglinite	0.0	0.0	True
878.062	0.0	2Suff RealStemNW	25	878062	creatously	0.0	1.0	False
878.996	0.0	2Suff w/o Lat.	22	878996	preferably	1.0	1.0	True
880.004	0.0	0Suff w/o Lat.	2	880004	prefer	1.0	0.0	False
880.93	0.0	0Suff w/o Lat.	2	880930	drunk	1.0	0.0	False
881.78	0.0	0Suff w/ Lat.	1	881780	object	1.0	0.0	False
882.622	0.0	1Suff w/o Lat.	12	882622	active	1.0	0.0	False
883.397	0.0	1Suff w/o Lat.	12	883397	tactical	1.0	0.0	False
884.306	0.0	2Suff w/o Lat.	22	884306	nationality	1.0	0.0	False
885.073	0.0	1Suff w/o Lat.	12	885073	modernist	1.0	0.0	False
885.906	0.0	1Suff w/o Lat.	12	885906	beautiful	1.0	0.0	False
886.69	0.0	2Suff RealStemNW	25	886690	commerceical	0.0	0.0	True
887.382	0.0	1Suff RealStemNW	15	887382	collectful	0.0	0.0	True
888.374	0.0	2Suff w/o Lat.	22	888374	causality	1.0	0.0	False
889.391	0.0	0Suff NW	4	889391	comfern	0.0	0.0	True
890.258	0.0	2Suff RealStemNW	25	890258	legalability	0.0	1.0	False
891.066	0.0	2Suff w/o Lat.	22	891066	traditionally	1.0	0.0	False
892.25	0.0	2Suff PseudoStemNW	24	892250	comberatively	0.0	1.0	False
893.133	0.0	1Suff PseudoStemNW	14	893133	rincheous	0.0	1.0	False
894.159	0.0	2Suff RealStemNW	25	894159	purifilessly	0.0	1.0	False
895.051	0.0	1Suff w/o Lat.	12	895051	cultural	1.0	0.0	False
896.018	0.0	0Suff w/o Lat.	2	896018	spirit	1.0	0.0	False
896.993	0.0	1Suff RealStemNW	15	896993	slippor	0.0	1.0	False
897.852	0.0	0Suff NW	4	897852	excrode	0.0	1.0	False
898.677	0.0	1Suff w/o Lat.	12	898677	collective	1.0	0.0	False
899.644	0.0	2Suff PseudoStemNW	24	899644	andezation	0.0	1.0	False
900.419	0.0	2Suff w/o Lat.	22	900419	tirelessly	1.0	1.0	True
901.328	0.0	0Suff NW	4	901328	tablic	0.0	1.0	False
902.345	0.0	1Suff RealStemNW	15	902345	feverory	0.0	1.0	False
903.162	0.0	2Suff w/o Lat.	22	903162	justification	1.0	0.0	False
904.045	0.0	1Suff PseudoStemNW	14	904045	herfal	0.0	1.0	False
904.804	0.0	0Suff NW	4	904804	lurtile	0.0	1.0	False
905.662	0.0	0Suff w/o Lat.	2	905662	respect	1.0	0.0	False
906.571	0.0	2Suff w/o Lat.	22	906571	drunkenly	1.0	1.0	True
907.38	0.0	2Suff RealStemNW	25	907380	excellalism	0.0	1.0	False
908.23	0.0	1Suff w/o Lat.	12	908230	suitable	1.0	0.0	False
909.205	0.0	0Suff NW	4	909205	styke	0.0	1.0	False
910.239	0.0	0Suff w/o Lat.	2	910239	joy	1.0	0.0	False
911.397	0.0	2Suff PseudoStemNW	24	911397	comburation	0.0	1.0	False
912.273	0.0	2Suff RealStemNW	25	912273	masterively	0.0	1.0	False
913.248	0.0	2Suff PseudoStemNW	24	913248	booftifully	0.0	1.0	False
914.057	0.0	2Suff RealStemNW	25	914057	clinicical	0.0	1.0	False
914.848	0.0	0Suff w/o Lat.	2	914848	second	1.0	0.0	False
915.774	0.0	0Suff w/o Lat.	2	915774	love	1.0	0.0	False
916.732	0.0	1Suff w/o Lat.	12	916732	herbal	1.0	0.0	False
917.583	0.0	2Suff PseudoStemNW	24	917583	massienately	0.0	1.0	False
918.533	0.0	1Suff PseudoStemNW	14	918533	esressive	0.0	1.0	False
919.375	0.0	0Suff w/o Lat.	2	919375	pure	1.0	1.0	True
920.217	0.0	2Suff RealStemNW	25	920217	hastery	0.0	1.0	False
921.175	0.0	2Suff w/o Lat.	22	921175	abolitionist	1.0	1.0	True
921.976	0.0	2Suff RealStemNW	25	921976	computitely	0.0	1.0	False
923.043	0.0	0Suff w/o Lat.	2	923043	kind	1.0	0.0	False
923.901	0.0	2Suff PseudoStemNW	24	923901	trithfully	0.0	1.0	False
924.885	0.0	2Suff w/o Lat.	22	924885	clinically	1.0	0.0	False
926.144	0.0	1Suff w/o Lat.	12	926144	merciful	1.0	0.0	False
927.036	0.0	2Suff w/o Lat.	22	927036	secondarily	1.0	0.0	False
927.994	0.0	2Suff w/ Lat.	21	927994	composition	1.0	0.0	False
928.861	0.0	0Suff NW	4	928861	navoun	0.0	0.0	True
929.628	0.0	0Suff NW	4	929628	trith	0.0	1.0	False
930.487	0.0	1Suff w/o Lat.	12	930487	abolition	1.0	1.0	True
931.17	0.0	2Suff RealStemNW	25	931170	brutantly	0.0	0.0	True
932.179	0.0	0Suff w/ Lat.	1	932179	presume	1.0	0.0	False
933.196	0.0	2Suff RealStemNW	25	933196	actality	0.0	1.0	False
934.163	0.0	0Suff NW	4	934163	contitum	0.0	1.0	False
934.988	0.0	1Suff w/o Lat.	12	934988	vaccinate	1.0	0.0	False
936.013	0.0	2Suff RealStemNW	25	936013	selfiousness	0.0	1.0	False
936.797	0.0	0Suff w/o Lat.	2	936797	greed	1.0	0.0	False
937.922	0.0	1Suff RealStemNW	15	937922	classal	0.0	1.0	False
938.989	0.0	1Suff w/ Lat.	11	938989	expression	1.0	0.0	False
939.881	0.0	2Suff PseudoStemNW	24	939881	canklessly	0.0	1.0	False
940.656	0.0	2Suff w/o Lat.	22	940656	selflessness	1.0	0.0	False
941.665	0.0	0Suff NW	4	941665	cedil	0.0	1.0	False
942.44	0.0	0Suff NW	4	942440	coatage	0.0	1.0	False
943.216	0.0	2Suff RealStemNW	25	943216	fooliveness	0.0	1.0	False
944.024	0.0	2Suff PseudoStemNW	24	944024	eschessionist	0.0	1.0	False
944.866	0.0	0Suff w/o Lat.	2	944866	optic	1.0	1.0	True
945.6	0.0	0Suff NW	4	945600	shact	0.0	1.0	False
946.458	0.0	0Suff NW	4	946458	connurt	0.0	1.0	False
947.25	0.0	0Suff NW	4	947250	arp	0.0	1.0	False
948.15	0.0	0Suff NW	4	948150	freat	0.0	1.0	False
949.142	0.0	1Suff w/o Lat.	12	949142	procedure	1.0	0.0	False
950.134	0.0	0Suff w/o Lat.	2	950134	attend	1.0	0.0	False
950.943	0.0	0Suff w/o Lat.	2	950943	danger	1.0	0.0	False
951.743	0.0	1Suff PseudoStemNW	14	951743	gunderful	0.0	1.0	False
952.652	0.0	0Suff NW	4	952652	ind	0.0	1.0	False
953.477	0.0	2Suff RealStemNW	25	953477	commerceional	0.0	1.0	False
954.577	0.0	2Suff w/o Lat.	22	954577	hastily	1.0	1.0	True
955.344	0.0	1Suff w/o Lat.	12	955344	senseless	1.0	0.0	False
956.328	0.0	2Suff w/o Lat.	22	956328	critically	1.0	0.0	False
