onset	duration	trial_type	value	sample	stimulus	is_word	response	correct
51.024	0.0	0Suff NW	4	51024	cank	0	1.0	False
52.467	0.0	2Suff RealStemNW	25	52467	whimsally	0	1.0	False
54.234	0.0	1Suff PseudoStemNW	14	54234	londly	0	1.0	False
56.134	0.0	2Suff w/o Lat.	22	56134	flexibility	1	0.0	False
57.368	0.0	0Suff w/o Lat.	2	57368	need	1	0.0	False
58.493	0.0	1Suff RealStemNW	15	58493	preferless	0	n/a	False
60.886	0.0	2Suff w/ Lat.	21	60886	composition	1	0.0	False
62.136	0.0	1Suff w/o Lat.	12	62136	joyful	1	0.0	False
63.253	0.0	2Suff w/ Lat.	21	63253	presumably	1	0.0	False
64.654	0.0	0Suff w/o Lat.	2	64654	cause	1	0.0	False
65.721	0.0	2Suff w/o Lat.	22	65721	greedily	1	0.0	False
67.48	0.0	2Suff PseudoStemNW	24	67480	utiethation	0	1.0	False
68.663	0.0	2Suff PseudoStemNW	24	68663	navounalism	0	1.0	False
70.489	0.0	2Suff w/o Lat.	22	70489	tactically	1	0.0	False
71.981	0.0	0Suff NW	4	71981	rinch	0	1.0	False
73.39	0.0	2Suff w/o Lat.	22	73390	fortunately	1	0.0	False
74.615	0.0	1Suff RealStemNW	15	74615	perfectate	0	n/a	False
77.016	0.0	1Suff w/o Lat.	12	77016	fearful	1	0.0	False
77.966	0.0	1Suff w/o Lat.	12	77966	assertive	1	0.0	False
79.05	0.0	0Suff NW	4	79050	clade	0	1.0	False
80.384	0.0	2Suff RealStemNW	25	80384	neediously	0	0.0	True
82.234	0.0	2Suff PseudoStemNW	24	82234	conwodential	0	1.0	False
83.309	0.0	2Suff RealStemNW	25	83309	expansishness	0	1.0	False
85.26	0.0	0Suff NW	4	85260	combere	0	0.0	True
86.894	0.0	1Suff w/o Lat.	12	86894	dangerous	1	0.0	False
87.844	0.0	1Suff w/o Lat.	12	87844	cyclic	1	0.0	False
88.853	0.0	0Suff w/o Lat.	2	88853	victim	1	0.0	False
89.903	0.0	2Suff w/ Lat.	21	89903	inspirational	1	0.0	False
91.02	0.0	2Suff PseudoStemNW	24	91020	conspodively	0	1.0	False
92.204	0.0	2Suff PseudoStemNW	24	92204	tistlessly	0	1.0	False
93.929	0.0	1Suff PseudoStemNW	14	93929	esressive	0	1.0	False
95.238	0.0	1Suff w/o Lat.	12	95238	industrial	1	0.0	False
96.388	0.0	2Suff w/o Lat.	22	96388	helpfully	1	0.0	False
97.355	0.0	1Suff PseudoStemNW	14	97355	onnention	0	1.0	False
98.514	0.0	2Suff Composite	23	98514	solidification	1	0.0	False
99.631	0.0	0Suff NW	4	99631	greard	0	1.0	False
101.432	0.0	1Suff w/o Lat.	12	101432	comical	1	0.0	False
102.632	0.0	2Suff w/o Lat.	22	102632	lustily	1	0.0	False
103.816	0.0	2Suff RealStemNW	25	103816	ceaseiously	0	1.0	False
104.899	0.0	0Suff w/o Lat.	2	104899	heart	1	0.0	False
105.916	0.0	0Suff NW	4	105916	pipson	0	1.0	False
107.292	0.0	2Suff RealStemNW	25	107292	exceptality	0	0.0	True
109.676	0.0	2Suff w/o Lat.	22	109676	comparatively	1	0.0	False
111.36	0.0	1Suff PseudoStemNW	14	111360	ceantless	0	1.0	False
113.06	0.0	1Suff RealStemNW	15	113060	traditionic	0	1.0	False
115.203	0.0	0Suff NW	4	115203	brole	0	1.0	False
116.536	0.0	2Suff w/o Lat.	22	116536	brokerage	1	0.0	False
118.112	0.0	0Suff NW	4	118112	herf	0	1.0	False
119.512	0.0	0Suff NW	4	119512	seet	0	1.0	False
120.954	0.0	2Suff Composite	23	120954	fortification	1	0.0	False
122.096	0.0	2Suff RealStemNW	25	122096	signiousness	0	1.0	False
124.247	0.0	2Suff RealStemNW	25	124247	ownmental	0	1.0	False
126.081	0.0	0Suff NW	4	126081	jist	0	0.0	True
127.431	0.0	2Suff RealStemNW	25	127431	fruitiously	0	0.0	True
128.773	0.0	1Suff w/o Lat.	12	128773	courageous	1	0.0	False
129.874	0.0	0Suff w/o Lat.	2	129874	select	1	0.0	False
130.991	0.0	1Suff w/o Lat.	12	130991	merciless	1	0.0	False
132.466	0.0	2Suff w/o Lat.	22	132466	personality	1	0.0	False
133.558	0.0	2Suff w/o Lat.	22	133558	commercially	1	0.0	False
135.142	0.0	0Suff w/o Lat.	2	135142	person	1	0.0	False
136.109	0.0	2Suff w/o Lat.	22	136109	creatively	1	0.0	False
137.176	0.0	1Suff w/o Lat.	12	137176	lonely	1	0.0	False
138.143	0.0	2Suff PseudoStemNW	24	138143	inglinitional	0	1.0	False
140.085	0.0	1Suff PseudoStemNW	14	140085	ludsy	0	1.0	False
141.394	0.0	0Suff NW	4	141394	ceant	0	1.0	False
142.519	0.0	0Suff w/o Lat.	2	142519	relent	1	0.0	False
144.587	0.0	2Suff w/o Lat.	22	144587	attractively	1	0.0	False
145.704	0.0	2Suff PseudoStemNW	24	145704	prosodural	0	1.0	False
147.096	0.0	0Suff NW	4	147096	orn	0	1.0	False
148.838	0.0	0Suff NW	4	148838	allend	0	1.0	False
150.73	0.0	0Suff NW	4	150730	exfapt	0	1.0	False
151.864	0.0	2Suff RealStemNW	25	151864	civilability	0	0.0	True
153.84	0.0	1Suff w/o Lat.	12	153840	computer	1	0.0	False
154.898	0.0	1Suff PseudoStemNW	14	154898	mymbolic	0	1.0	False
156.149	0.0	1Suff RealStemNW	15	156149	comparatful	0	1.0	False
158.241	0.0	2Suff PseudoStemNW	24	158241	jistification	0	0.0	True
159.891	0.0	0Suff NW	4	159891	combore	0	1.0	False
162.05	0.0	0Suff NW	4	162050	conwode	0	1.0	False
163.151	0.0	2Suff w/ Lat.	21	163151	conclusively	1	0.0	False
164.359	0.0	2Suff w/o Lat.	22	164359	symbolically	1	0.0	False
165.652	0.0	0Suff NW	4	165652	precuke	0	1.0	False
166.91	0.0	0Suff w/o Lat.	2	166910	fear	1	0.0	False
168.036	0.0	1Suff RealStemNW	15	168036	slippor	0	1.0	False
170.37	0.0	0Suff NW	4	170370	abadill	0	1.0	False
171.362	0.0	2Suff RealStemNW	25	171362	farcally	0	1.0	False
172.82	0.0	2Suff w/o Lat.	22	172820	needlessly	1	0.0	False
173.904	0.0	2Suff w/o Lat.	22	173904	abolitionist	1	0.0	False
175.238	0.0	1Suff w/o Lat.	12	175238	sensual	1	0.0	False
176.355	0.0	2Suff RealStemNW	25	176355	prophetionist	0	n/a	False
178.747	0.0	2Suff w/o Lat.	22	178747	stylistic	1	0.0	False
179.764	0.0	2Suff RealStemNW	25	179764	loneionist	0	1.0	False
181.481	0.0	2Suff Composite	23	181481	maturation	1	0.0	False
182.607	0.0	2Suff w/o Lat.	22	182607	sensuality	1	0.0	False
183.624	0.0	0Suff NW	4	183624	arp	0	1.0	False
184.749	0.0	2Suff w/ Lat.	21	184749	perfectionist	1	0.0	False
185.841	0.0	2Suff Composite	23	185841	synchronization	1	0.0	False
186.908	0.0	1Suff w/o Lat.	12	186908	hasty	1	0.0	False
188.008	0.0	0Suff NW	4	188008	perfall	0	1.0	False
189.317	0.0	2Suff Composite	23	189317	probation	1	0.0	False
190.418	0.0	1Suff w/o Lat.	12	190418	ceaseless	1	0.0	False
191.843	0.0	1Suff PseudoStemNW	14	191843	vetcinate	0	1.0	False
192.96	0.0	0Suff w/ Lat.	1	192960	conclude	1	0.0	False
193.927	0.0	2Suff RealStemNW	25	193927	careiousness	0	1.0	False
195.602	0.0	2Suff PseudoStemNW	24	195602	canklessly	0	1.0	False
196.986	0.0	1Suff w/o Lat.	12	196986	tactical	1	0.0	False
198.153	0.0	2Suff w/o Lat.	22	198153	masterfully	1	0.0	False
199.27	0.0	1Suff PseudoStemNW	14	199270	prosodure	0	1.0	False
200.387	0.0	0Suff w/ Lat.	1	200387	express	1	0.0	False
201.429	0.0	2Suff PseudoStemNW	24	201429	movectistic	0	1.0	False
202.721	0.0	0Suff NW	4	202721	darber	0	1.0	False
204.197	0.0	1Suff w/ Lat.	11	204197	presumable	1	0.0	False
205.305	0.0	1Suff PseudoStemNW	14	205305	mocondary	0	1.0	False
206.606	0.0	1Suff RealStemNW	15	206606	mercyive	0	1.0	False
207.89	0.0	2Suff w/o Lat.	22	207890	significance	1	0.0	False
208.94	0.0	2Suff RealStemNW	25	208940	purifilessly	0	0.0	True
210.765	0.0	1Suff w/o Lat.	12	210765	cultural	1	0.0	False
211.891	0.0	0Suff w/o Lat.	2	211891	cycle	1	0.0	False
212.933	0.0	2Suff PseudoStemNW	24	212933	janiability	0	1.0	False
214.15	0.0	2Suff PseudoStemNW	24	214150	jistifiable	0	n/a	False
227.487	0.0	2Suff w/o Lat.	22	227487	justifiable	1	0.0	False
228.754	0.0	0Suff NW	4	228754	retend	0	1.0	False
230.397	0.0	1Suff PseudoStemNW	14	230397	jokous	0	1.0	False
231.739	0.0	0Suff NW	4	231739	ewils	0	1.0	False
232.772	0.0	2Suff w/o Lat.	22	232772	carefully	1	0.0	False
233.756	0.0	1Suff w/o Lat.	12	233756	continuous	1	0.0	False
234.765	0.0	0Suff w/o Lat.	2	234765	admire	1	0.0	False
235.723	0.0	1Suff w/o Lat.	12	235723	lusty	1	0.0	False
237.24	0.0	2Suff w/o Lat.	22	237240	effortlessly	1	0.0	False
238.132	0.0	2Suff Composite	23	238132	vulgarization	1	0.0	False
240.291	0.0	1Suff w/o Lat.	12	240291	various	1	0.0	False
241.425	0.0	0Suff w/o Lat.	2	241425	compare	1	0.0	False
242.509	0.0	1Suff RealStemNW	15	242509	noticeless	0	0.0	True
243.492	0.0	0Suff w/o Lat.	2	243492	self	1	0.0	False
244.959	0.0	2Suff PseudoStemNW	24	244959	spippery	0	1.0	False
246.226	0.0	0Suff w/o Lat.	2	246226	optic	1	0.0	False
247.327	0.0	2Suff w/o Lat.	22	247327	foolishness	1	0.0	False
249.052	0.0	1Suff w/o Lat.	12	249052	fortunate	1	0.0	False
249.928	0.0	1Suff PseudoStemNW	14	249928	janiable	0	1.0	False
251.186	0.0	1Suff PseudoStemNW	14	251186	bleadful	0	n/a	False
253.587	0.0	2Suff w/o Lat.	22	253587	rightfully	1	0.0	False
254.662	0.0	0Suff w/o Lat.	2	254662	mourn	1	0.0	False
256.096	0.0	1Suff PseudoStemNW	14	256096	desterful	0	1.0	False
257.88	0.0	1Suff w/o Lat.	12	257880	effortless	1	0.0	False
258.822	0.0	0Suff NW	4	258822	elpard	0	1.0	False
259.872	0.0	1Suff w/o Lat.	12	259872	expansive	1	0.0	False
260.848	0.0	0Suff NW	4	260848	combure	0	1.0	False
262.015	0.0	1Suff RealStemNW	15	262015	virtance	0	1.0	False
263.29	0.0	2Suff PseudoStemNW	24	263290	hettfully	0	1.0	False
264.29	0.0	0Suff w/ Lat.	1	264290	provide	1	0.0	False
265.324	0.0	1Suff w/o Lat.	12	265324	righteous	1	0.0	False
266.274	0.0	2Suff RealStemNW	25	266274	tacticical	0	0.0	True
267.416	0.0	2Suff w/o Lat.	22	267416	activity	1	0.0	False
268.475	0.0	2Suff w/o Lat.	22	268475	endlessly	1	0.0	False
269.559	0.0	2Suff w/o Lat.	22	269559	feverishly	1	0.0	False
270.767	0.0	1Suff w/o Lat.	12	270767	excellent	1	0.0	False
271.676	0.0	1Suff PseudoStemNW	14	271676	coyimal	0	1.0	False
272.776	0.0	1Suff RealStemNW	15	272776	confidious	0	0.0	True
275.11	0.0	2Suff w/ Lat.	21	275110	objectionable	1	0.0	False
276.119	0.0	2Suff w/o Lat.	22	276119	righteousness	1	0.0	False
277.019	0.0	0Suff NW	4	277019	podent	0	0.0	True
278.97	0.0	1Suff PseudoStemNW	14	278970	traphetic	0	1.0	False
280.295	0.0	0Suff w/o Lat.	2	280295	exist	1	0.0	False
281.479	0.0	2Suff RealStemNW	25	281479	respectfully	0	0.0	True
282.413	0.0	1Suff w/o Lat.	12	282413	lovely	1	0.0	False
283.455	0.0	0Suff NW	4	283455	byvre	0	1.0	False
285.422	0.0	0Suff NW	4	285422	carsh	0	1.0	False
287.022	0.0	0Suff w/o Lat.	2	287022	sign	1	0.0	False
287.964	0.0	2Suff RealStemNW	25	287964	fooliveness	0	0.0	True
288.923	0.0	2Suff Composite	23	288923	identification	1	0.0	False
290.773	0.0	2Suff PseudoStemNW	24	290773	navounality	0	1.0	False
291.974	0.0	1Suff RealStemNW	15	291974	careive	0	1.0	False
293.341	0.0	0Suff w/o Lat.	2	293341	symbol	1	0.0	False
294.316	0.0	2Suff RealStemNW	25	294316	causional	0	1.0	False
295.55	0.0	2Suff RealStemNW	25	295550	nullifilessly	0	1.0	False
296.65	0.0	0Suff w/ Lat.	1	296650	inspire	1	0.0	False
297.542	0.0	2Suff w/o Lat.	22	297542	prophetically	1	0.0	False
298.884	0.0	2Suff PseudoStemNW	24	298884	procation	0	n/a	False
301.277	0.0	2Suff w/o Lat.	22	301277	activist	1	0.0	False
302.435	0.0	1Suff RealStemNW	15	302435	humanify	0	1.0	False
303.778	0.0	1Suff w/o Lat.	12	303778	admirable	1	0.0	False
304.761	0.0	2Suff w/o Lat.	22	304761	heartily	1	0.0	False
305.778	0.0	1Suff w/o Lat.	12	305778	passionate	1	0.0	False
306.828	0.0	2Suff RealStemNW	25	306828	selfiveness	0	1.0	False
308.246	0.0	2Suff w/o Lat.	22	308246	secondarily	1	1.0	True
309.704	0.0	2Suff w/o Lat.	22	309704	traditionally	1	0.0	False
310.996	0.0	1Suff RealStemNW	15	310996	modernate	0	0.0	True
312.63	0.0	0Suff NW	4	312630	bruke	0	1.0	False
313.931	0.0	0Suff NW	4	313931	franic	0	1.0	False
315.298	0.0	1Suff PseudoStemNW	14	315298	eschession	0	1.0	False
316.681	0.0	0Suff w/o Lat.	2	316681	sharp	1	0.0	False
317.615	0.0	1Suff RealStemNW	15	317615	conductful	0	0.0	True
318.84	0.0	1Suff w/ Lat.	11	318840	intention	1	0.0	False
319.816	0.0	1Suff w/o Lat.	12	319816	vaccinate	1	0.0	False
320.808	0.0	2Suff Composite	23	320808	ordination	1	0.0	False
322.7	0.0	2Suff w/o Lat.	22	322700	variously	1	0.0	False
323.734	0.0	0Suff NW	4	323734	nolave	0	1.0	False
324.767	0.0	1Suff PseudoStemNW	14	324767	seetable	0	1.0	False
326.46	0.0	1Suff RealStemNW	15	326460	fortunion	0	1.0	False
327.877	0.0	1Suff w/o Lat.	12	327877	optical	1	0.0	False
329.06	0.0	0Suff NW	4	329060	coatage	0	1.0	False
330.127	0.0	2Suff w/o Lat.	22	330127	dangerously	1	0.0	False
331.036	0.0	2Suff RealStemNW	25	331036	identifilessly	0	1.0	False
332.37	0.0	1Suff w/o Lat.	12	332370	momentary	1	0.0	False
333.478	0.0	2Suff RealStemNW	25	333478	momentantly	0	n/a	False
335.871	0.0	2Suff PseudoStemNW	24	335871	pipsonally	0	1.0	False
337.129	0.0	0Suff NW	4	337129	shact	0	1.0	False
339.072	0.0	2Suff w/o Lat.	22	339072	culturally	1	0.0	False
340.047	0.0	1Suff w/o Lat.	12	340047	hearty	1	0.0	False
341.147	0.0	2Suff PseudoStemNW	24	341147	cronitionally	0	1.0	False
342.531	0.0	0Suff w/o Lat.	2	342531	style	1	0.0	False
343.498	0.0	0Suff NW	4	343498	simn	0	1.0	False
344.54	0.0	2Suff PseudoStemNW	24	344540	griedily	0	0.0	True
345.665	0.0	0Suff NW	4	345665	healt	0	1.0	False
347.583	0.0	2Suff w/o Lat.	22	347583	helplessly	1	0.0	False
348.683	0.0	1Suff PseudoStemNW	14	348683	jokful	0	1.0	False
349.725	0.0	2Suff w/o Lat.	22	349725	courageously	1	0.0	False
350.784	0.0	1Suff RealStemNW	15	350784	fruitable	0	1.0	False
352.726	0.0	1Suff RealStemNW	15	352726	tacticic	0	1.0	False
354.168	0.0	1Suff w/o Lat.	12	354168	flexible	1	0.0	False
356.56	0.0	0Suff NW	4	356560	tist	0	1.0	False
358.644	0.0	2Suff RealStemNW	25	358644	identally	0	1.0	False
360.653	0.0	2Suff RealStemNW	25	360653	valufully	0	1.0	False
362.662	0.0	2Suff RealStemNW	25	362662	effortiously	0	n/a	False
365.063	0.0	0Suff NW	4	365063	movect	0	1.0	False
366.764	0.0	2Suff PseudoStemNW	24	366764	rincheousness	0	1.0	False
368.081	0.0	1Suff PseudoStemNW	14	368081	atstartive	0	1.0	False
369.031	0.0	1Suff RealStemNW	15	369031	modulion	0	1.0	False
369.956	0.0	2Suff RealStemNW	25	369956	breathiously	0	1.0	False
371.382	0.0	2Suff w/o Lat.	22	371382	assertiveness	1	0.0	False
372.682	0.0	2Suff RealStemNW	25	372682	virtuerize	0	1.0	False
373.749	0.0	1Suff w/o Lat.	12	373749	herbal	1	0.0	False
375.008	0.0	0Suff NW	4	375008	mourd	0	1.0	False
376.583	0.0	0Suff w/ Lat.	1	376583	exclude	1	0.0	False
377.859	0.0	0Suff NW	4	377859	exprede	0	1.0	False
378.934	0.0	1Suff RealStemNW	15	378934	magicic	0	1.0	False
380.193	0.0	2Suff w/o Lat.	22	380193	attentively	1	0.0	False
382.093	0.0	1Suff RealStemNW	15	382093	continuic	0	1.0	False
383.119	0.0	0Suff w/o Lat.	2	383119	herb	1	0.0	False
393.555	0.0	0Suff NW	4	393555	jok	0	1.0	False
394.589	0.0	2Suff PseudoStemNW	24	394589	arpivity	0	1.0	False
395.773	0.0	1Suff RealStemNW	15	395773	feverory	0	1.0	False
396.773	0.0	2Suff RealStemNW	25	396773	clinicical	0	n/a	False
399.174	0.0	0Suff w/o Lat.	2	399174	haste	1	0.0	False
400.549	0.0	0Suff w/o Lat.	2	400549	assert	1	1.0	True
401.733	0.0	1Suff w/o Lat.	12	401733	justify	1	0.0	False
402.758	0.0	1Suff w/o Lat.	12	402758	careful	1	0.0	False
403.608	0.0	1Suff w/ Lat.	11	403608	explosive	1	0.0	False
404.6	0.0	0Suff NW	4	404600	brealt	0	1.0	False
405.834	0.0	1Suff PseudoStemNW	14	405834	lumsy	0	1.0	False
406.993	0.0	1Suff RealStemNW	15	406993	exceptate	0	1.0	False
408.71	0.0	0Suff NW	4	408710	tedal	0	1.0	False
409.694	0.0	2Suff w/ Lat.	21	409694	excessively	1	0.0	False
410.794	0.0	1Suff w/o Lat.	12	410794	helpless	1	0.0	False
411.694	0.0	0Suff w/o Lat.	2	411694	expand	1	0.0	False
412.769	0.0	0Suff NW	4	412769	loke	0	1.0	False
413.72	0.0	2Suff w/o Lat.	22	413720	brutality	1	0.0	False
414.737	0.0	2Suff w/o Lat.	22	414737	existential	1	0.0	False
416.079	0.0	2Suff PseudoStemNW	24	416079	excrodiveness	0	1.0	False
417.129	0.0	0Suff w/o Lat.	2	417129	custom	1	0.0	False
418.138	0.0	1Suff RealStemNW	15	418138	victimist	0	0.0	True
419.98	0.0	0Suff NW	4	419980	obwert	0	1.0	False
420.997	0.0	2Suff PseudoStemNW	24	420997	booftifully	0	1.0	False
422.014	0.0	2Suff PseudoStemNW	24	422014	murpilessly	0	1.0	False
423.248	0.0	1Suff RealStemNW	15	423248	cyclal	0	1.0	False
424.907	0.0	0Suff NW	4	424907	luds	0	1.0	False
426.74	0.0	1Suff PseudoStemNW	14	426740	brukal	0	1.0	False
427.666	0.0	0Suff NW	4	427666	cuppom	0	1.0	False
428.583	0.0	2Suff RealStemNW	25	428583	foolality	0	1.0	False
429.633	0.0	2Suff w/o Lat.	22	429633	spirituality	1	0.0	False
430.767	0.0	0Suff NW	4	430767	moolure	0	1.0	False
431.75	0.0	2Suff w/ Lat.	21	431750	institutional	1	0.0	False
432.834	0.0	0Suff w/o Lat.	2	432834	drunk	1	0.0	False
433.801	0.0	1Suff w/o Lat.	12	433801	personal	1	0.0	False
434.668	0.0	0Suff NW	4	434668	spip	0	1.0	False
435.677	0.0	1Suff w/o Lat.	12	435677	continual	1	0.0	False
436.835	0.0	1Suff PseudoStemNW	14	436835	rebuinal	0	1.0	False
438.136	0.0	2Suff w/o Lat.	22	438136	legalization	1	0.0	False
439.119	0.0	2Suff PseudoStemNW	24	439119	blunkenness	0	1.0	False
440.92	0.0	1Suff w/o Lat.	12	440920	relentless	1	0.0	False
441.895	0.0	1Suff w/o Lat.	12	441895	humanist	1	0.0	False
443.062	0.0	0Suff NW	4	443062	lums	0	1.0	False
444.121	0.0	2Suff PseudoStemNW	24	444121	comburation	0	1.0	False
445.438	0.0	0Suff NW	4	445438	faice	0	1.0	False
446.372	0.0	1Suff w/ Lat.	11	446372	expression	1	0.0	False
447.572	0.0	2Suff w/o Lat.	22	447572	vaccination	1	0.0	False
448.556	0.0	2Suff PseudoStemNW	24	448556	mocondarily	0	1.0	False
449.539	0.0	0Suff w/o Lat.	2	449539	module	1	0.0	False
450.523	0.0	1Suff w/o Lat.	12	450523	modernize	1	0.0	False
451.531	0.0	2Suff RealStemNW	25	451531	sensator	0	0.0	True
452.523	0.0	0Suff w/o Lat.	2	452523	lust	1	0.0	False
453.549	0.0	2Suff w/o Lat.	22	453549	sensibility	1	0.0	False
454.482	0.0	1Suff w/o Lat.	12	454482	instinctive	1	0.0	False
455.591	0.0	0Suff w/o Lat.	2	455591	magic	1	0.0	False
456.441	0.0	0Suff w/ Lat.	1	456441	institute	1	0.0	False
457.342	0.0	0Suff w/o Lat.	2	457342	human	1	0.0	False
458.167	0.0	1Suff PseudoStemNW	14	458167	contituous	0	0.0	True
459.2	0.0	2Suff PseudoStemNW	24	459200	herfalist	0	1.0	False
461.043	0.0	2Suff w/o Lat.	22	461043	expansiveness	1	0.0	False
462.118	0.0	2Suff RealStemNW	25	462118	useiously	0	1.0	False
463.393	0.0	2Suff w/o Lat.	22	463393	mournfully	1	0.0	False
464.669	0.0	2Suff w/o Lat.	22	464669	fruitlessly	1	0.0	False
466.319	0.0	0Suff w/o Lat.	2	466319	help	1	0.0	False
467.253	0.0	1Suff PseudoStemNW	14	467253	gunderful	0	1.0	False
468.512	0.0	1Suff PseudoStemNW	14	468512	griedy	0	1.0	False
469.545	0.0	2Suff w/o Lat.	22	469545	personally	1	0.0	False
470.571	0.0	2Suff Composite	23	470571	nullification	1	1.0	True
471.571	0.0	2Suff PseudoStemNW	24	471571	hettlessness	0	1.0	False
473.08	0.0	2Suff RealStemNW	25	473080	drunkoral	0	1.0	False
474.23	0.0	1Suff PseudoStemNW	14	474230	selveless	0	1.0	False
475.38	0.0	2Suff RealStemNW	25	475380	sensfulness	0	1.0	False
477.298	0.0	0Suff w/o Lat.	2	477298	own	1	0.0	False
478.423	0.0	1Suff w/ Lat.	11	478423	conclusive	1	0.0	False
479.615	0.0	2Suff w/o Lat.	22	479615	variability	1	0.0	False
480.54	0.0	0Suff NW	4	480540	selve	0	1.0	False
482.308	0.0	2Suff w/o Lat.	22	482308	actively	1	0.0	False
483.308	0.0	2Suff w/o Lat.	22	483308	herbalist	1	0.0	False
484.492	0.0	1Suff w/o Lat.	12	484492	sharpen	1	0.0	False
485.392	0.0	2Suff Composite	23	485392	voyeuristic	1	1.0	True
486.401	0.0	2Suff Composite	23	486401	secularization	1	0.0	False
487.951	0.0	2Suff w/o Lat.	22	487951	instinctively	1	0.0	False
488.876	0.0	0Suff NW	4	488876	trith	0	1.0	False
489.968	0.0	1Suff w/o Lat.	12	489968	suitable	1	0.0	False
491.01	0.0	2Suff w/o Lat.	22	491010	selectively	1	0.0	False
492.052	0.0	2Suff PseudoStemNW	24	492052	melidification	0	1.0	False
493.161	0.0	2Suff RealStemNW	25	493161	hierarchally	0	1.0	False
494.186	0.0	2Suff w/o Lat.	22	494186	justification	1	0.0	False
495.228	0.0	2Suff w/o Lat.	22	495228	artistic	1	0.0	False
496.162	0.0	0Suff NW	4	496162	eschess	0	1.0	False
497.279	0.0	2Suff w/ Lat.	21	497279	explosively	1	0.0	False
498.304	0.0	2Suff PseudoStemNW	24	498304	pimerfully	0	1.0	False
499.521	0.0	2Suff PseudoStemNW	24	499521	atstartively	0	1.0	False
500.547	0.0	2Suff RealStemNW	25	500547	selectously	0	0.0	True
501.63	0.0	1Suff w/o Lat.	12	501630	purify	1	0.0	False
502.897	0.0	1Suff RealStemNW	15	502897	powerive	0	1.0	False
504.073	0.0	2Suff RealStemNW	25	504073	brutantly	0	0.0	True
506.432	0.0	1Suff RealStemNW	15	506432	exclusful	0	1.0	False
508.474	0.0	0Suff w/o Lat.	2	508474	fruit	1	0.0	False
509.491	0.0	1Suff w/o Lat.	12	509491	measurable	1	0.0	False
510.541	0.0	2Suff RealStemNW	25	510541	noisery	0	1.0	False
511.983	0.0	1Suff w/o Lat.	12	511983	commercial	1	0.0	False
513.05	0.0	0Suff NW	4	513050	navoun	0	1.0	False
514.067	0.0	0Suff NW	4	514067	victap	0	1.0	False
515.918	0.0	1Suff RealStemNW	15	515918	variment	0	0.0	True
517.977	0.0	2Suff PseudoStemNW	24	517977	kibsliness	0	1.0	False
519.011	0.0	0Suff NW	4	519011	jany	0	1.0	False
520.036	0.0	1Suff w/o Lat.	12	520036	endless	1	0.0	False
521.036	0.0	1Suff RealStemNW	15	521036	nationic	0	1.0	False
522.528	0.0	1Suff PseudoStemNW	14	522528	allendive	0	1.0	False
523.545	0.0	0Suff NW	4	523545	hett	0	1.0	False
524.429	0.0	1Suff w/o Lat.	12	524429	regional	1	0.0	False
525.546	0.0	0Suff NW	4	525546	indolsty	0	1.0	False
526.621	0.0	0Suff w/o Lat.	2	526621	fertile	1	0.0	False
527.672	0.0	0Suff w/ Lat.	1	527672	presume	1	0.0	False
528.747	0.0	2Suff w/o Lat.	22	528747	causality	1	0.0	False
529.789	0.0	2Suff w/ Lat.	21	529789	exclusively	1	0.0	False
530.789	0.0	0Suff NW	4	530789	inflise	0	1.0	False
531.79	0.0	1Suff w/ Lat.	11	531790	objective	1	0.0	False
536.599	0.0	2Suff RealStemNW	25	536599	senseiously	0	1.0	False
537.891	0.0	0Suff w/o Lat.	2	537891	greed	1	0.0	False
538.85	0.0	2Suff RealStemNW	25	538850	opticical	0	0.0	True
540.067	0.0	1Suff w/o Lat.	12	540067	magical	1	0.0	False
541.076	0.0	2Suff w/o Lat.	22	541076	momentarily	1	0.0	False
542.276	0.0	2Suff RealStemNW	25	542276	assertishness	0	1.0	False
543.843	0.0	1Suff PseudoStemNW	14	543843	awnist	0	1.0	False
544.819	0.0	2Suff RealStemNW	25	544819	lustery	0	1.0	False
546.027	0.0	2Suff RealStemNW	25	546027	feverality	0	0.0	True
547.636	0.0	2Suff w/o Lat.	22	547636	fertilizer	1	0.0	False
548.803	0.0	2Suff w/o Lat.	22	548803	nationality	1	0.0	False
549.87	0.0	2Suff w/o Lat.	22	549870	heroically	1	0.0	False
551.521	0.0	0Suff w/o Lat.	2	551521	respect	1	0.0	False
552.796	0.0	2Suff w/o Lat.	22	552796	nationally	1	0.0	False
553.88	0.0	0Suff w/ Lat.	1	553880	perfect	1	0.0	False
554.905	0.0	1Suff w/ Lat.	11	554905	perfection	1	0.0	False
556.48	0.0	2Suff RealStemNW	25	556480	penalilessly	0	1.0	False
557.581	0.0	1Suff RealStemNW	15	557581	helpive	0	1.0	False
558.923	0.0	2Suff PseudoStemNW	24	558923	arresogical	0	1.0	False
559.923	0.0	2Suff RealStemNW	25	559923	synchronilessly	0	n/a	False
562.324	0.0	2Suff w/ Lat.	21	562324	perfectionism	1	0.0	False
563.333	0.0	2Suff PseudoStemNW	24	563333	lokeliness	0	1.0	False
564.325	0.0	0Suff NW	4	564325	traphet	0	1.0	False
565.342	0.0	0Suff w/ Lat.	1	565342	conduct	1	0.0	False
566.384	0.0	0Suff w/o Lat.	2	566384	attend	1	0.0	False
567.342	0.0	1Suff PseudoStemNW	14	567342	booftiful	0	1.0	False
568.893	0.0	1Suff PseudoStemNW	14	568893	darberous	0	1.0	False
570.093	0.0	2Suff w/o Lat.	22	570093	falsification	1	0.0	False
571.493	0.0	2Suff PseudoStemNW	24	571493	paragewical	0	1.0	False
572.469	0.0	2Suff RealStemNW	25	572469	artional	0	1.0	False
573.527	0.0	1Suff PseudoStemNW	14	573527	rincheous	0	1.0	False
574.711	0.0	1Suff w/o Lat.	12	574711	attractive	1	0.0	False
575.786	0.0	0Suff NW	4	575786	adnise	0	1.0	False
576.903	0.0	2Suff w/o Lat.	22	576903	commercialism	1	0.0	False
578.229	0.0	0Suff NW	4	578229	slex	0	1.0	False
579.304	0.0	2Suff RealStemNW	25	579304	commerceical	0	0.0	True
580.346	0.0	1Suff w/o Lat.	12	580346	slipper	1	0.0	False
581.447	0.0	2Suff w/o Lat.	22	581447	selectivity	1	0.0	False
582.438	0.0	1Suff PseudoStemNW	14	582438	inflisation	0	1.0	False
583.455	0.0	1Suff w/o Lat.	12	583455	greedy	1	0.0	False
584.389	0.0	2Suff w/o Lat.	22	584389	joyfully	1	0.0	False
585.431	0.0	1Suff w/o Lat.	12	585431	creative	1	0.0	False
586.331	0.0	0Suff w/o Lat.	2	586331	flex	1	0.0	False
587.64	0.0	2Suff RealStemNW	25	587640	unifilessly	0	1.0	False
588.657	0.0	2Suff w/o Lat.	22	588657	civilization	1	0.0	False
589.582	0.0	2Suff w/o Lat.	22	589582	respectively	1	0.0	False
590.491	0.0	1Suff w/ Lat.	11	590491	provision	1	0.0	False
591.608	0.0	2Suff w/o Lat.	22	591608	creativity	1	0.0	False
592.533	0.0	1Suff PseudoStemNW	14	592533	cuppomary	0	1.0	False
593.534	0.0	0Suff w/o Lat.	2	593534	class	1	0.0	False
594.434	0.0	2Suff PseudoStemNW	24	594434	trithfully	0	1.0	False
595.468	0.0	0Suff w/ Lat.	1	595468	intend	1	0.0	False
596.351	0.0	0Suff NW	4	596351	pums	0	1.0	False
598.043	0.0	1Suff PseudoStemNW	14	598043	nolfy	0	1.0	False
599.06	0.0	2Suff RealStemNW	25	599060	inspiratality	0	0.0	True
600.019	0.0	2Suff w/o Lat.	22	600019	preferably	1	0.0	False
601.044	0.0	0Suff NW	4	601044	exfal	0	1.0	False
602.053	0.0	1Suff RealStemNW	15	602053	purant	0	1.0	False
603.12	0.0	1Suff PseudoStemNW	14	603120	simnify	0	1.0	False
604.037	0.0	0Suff NW	4	604037	ind	0	1.0	False
605.029	0.0	1Suff w/o Lat.	12	605029	prophetic	1	0.0	False
606.829	0.0	0Suff NW	4	606829	pacic	0	1.0	False
607.855	0.0	1Suff RealStemNW	15	607855	abolitate	0	1.0	False
609.705	0.0	1Suff w/o Lat.	12	609705	owner	1	0.0	False
610.731	0.0	0Suff NW	4	610731	mympol	0	1.0	False
611.731	0.0	1Suff w/o Lat.	12	611731	kindly	1	0.0	False
612.689	0.0	2Suff RealStemNW	25	612689	excellalism	0	1.0	False
613.798	0.0	2Suff PseudoStemNW	24	613798	murpifully	0	1.0	False
614.74	0.0	2Suff Composite	23	614740	hierarchical	1	0.0	False
615.865	0.0	0Suff w/o Lat.	2	615865	modern	1	0.0	False
616.841	0.0	2Suff w/o Lat.	22	616841	magically	1	0.0	False
617.816	0.0	1Suff w/o Lat.	12	617816	comfortable	1	0.0	False
618.766	0.0	1Suff PseudoStemNW	14	618766	comfernable	0	1.0	False
619.858	0.0	2Suff w/o Lat.	22	619858	industrialist	1	0.0	False
621.25	0.0	2Suff RealStemNW	25	621250	dergadfully	0	1.0	False
622.326	0.0	2Suff PseudoStemNW	24	622326	comborition	0	1.0	False
623.426	0.0	0Suff NW	4	623426	tablic	0	1.0	False
624.835	0.0	2Suff PseudoStemNW	24	624835	cutfurally	0	1.0	False
625.81	0.0	2Suff RealStemNW	25	625810	endiously	0	0.0	True
626.952	0.0	2Suff RealStemNW	25	626952	commerceional	0	1.0	False
628.553	0.0	2Suff RealStemNW	25	628553	masterively	0	1.0	False
630.212	0.0	2Suff RealStemNW	25	630212	vulgarilessly	0	1.0	False
631.445	0.0	2Suff RealStemNW	25	631445	brokiness	0	1.0	False
632.471	0.0	0Suff NW	4	632471	gunder	0	1.0	False
633.429	0.0	2Suff Composite	23	633429	penalization	1	1.0	True
634.646	0.0	0Suff NW	4	634646	cutfure	0	1.0	False
635.555	0.0	0Suff NW	4	635555	recrern	0	1.0	False
636.422	0.0	1Suff PseudoStemNW	14	636422	orner	0	1.0	False
637.355	0.0	2Suff w/ Lat.	21	637355	conductivity	1	0.0	False
639.098	0.0	1Suff w/o Lat.	12	639098	lucky	1	0.0	False
640.023	0.0	2Suff PseudoStemNW	24	640023	byvrical	0	1.0	False
640.94	0.0	2Suff PseudoStemNW	24	640940	jokfully	0	1.0	False
641.965	0.0	1Suff w/ Lat.	11	641965	conductive	1	0.0	False
643.349	0.0	0Suff NW	4	643349	sarument	0	1.0	False
644.399	0.0	2Suff w/o Lat.	22	644399	classical	1	0.0	False
645.333	0.0	2Suff PseudoStemNW	24	645333	bleadfully	0	0.0	True
647.534	0.0	1Suff RealStemNW	15	647534	classal	0	0.0	True
648.392	0.0	0Suff w/o Lat.	2	648392	danger	1	0.0	False
649.326	0.0	2Suff w/o Lat.	22	649326	nationalism	1	0.0	False
650.309	0.0	2Suff PseudoStemNW	24	650309	movectization	0	1.0	False
651.785	0.0	0Suff w/ Lat.	1	651785	compose	1	0.0	False
653.227	0.0	0Suff NW	4	653227	lurtile	0	1.0	False
654.302	0.0	2Suff Composite	23	654302	allegorical	1	1.0	True
655.294	0.0	0Suff w/o Lat.	2	655294	measure	1	0.0	False
656.403	0.0	0Suff NW	4	656403	mocond	0	1.0	False
657.403	0.0	0Suff w/o Lat.	2	657403	truth	1	0.0	False
658.395	0.0	2Suff Composite	23	658395	orientation	1	0.0	False
659.504	0.0	2Suff PseudoStemNW	24	659504	hettlessly	0	1.0	False
660.621	0.0	2Suff Composite	23	660621	altercation	1	1.0	True
661.621	0.0	1Suff RealStemNW	15	661621	helpable	0	0.0	True
662.863	0.0	1Suff w/ Lat.	11	662863	inspiration	1	0.0	False
664.039	0.0	2Suff RealStemNW	25	664039	explosfully	0	1.0	False
665.522	0.0	2Suff Composite	23	665522	unification	1	0.0	False
666.798	0.0	1Suff RealStemNW	15	666798	momentish	0	1.0	False
668.598	0.0	2Suff PseudoStemNW	24	668598	sedulation	0	1.0	False
670.124	0.0	2Suff w/ Lat.	21	670124	expressionism	1	0.0	False
671.849	0.0	2Suff w/o Lat.	22	671849	loveliness	1	0.0	False
673.0	0.0	2Suff w/o Lat.	22	673000	spiritualism	1	0.0	False
674.192	0.0	0Suff NW	4	674192	provace	0	1.0	False
702.417	0.0	2Suff PseudoStemNW	24	702417	trithfulness	0	1.0	False
703.484	0.0	0Suff NW	4	703484	inglinite	0	1.0	False
704.793	0.0	2Suff w/o Lat.	22	704793	helplessness	1	0.0	False
706.177	0.0	2Suff Composite	23	706177	purification	1	0.0	False
707.194	0.0	2Suff w/o Lat.	22	707194	selfishness	1	0.0	False
708.269	0.0	2Suff RealStemNW	25	708269	voyeurional	0	1.0	False
709.278	0.0	0Suff w/o Lat.	2	709278	broke	1	0.0	False
710.478	0.0	0Suff w/o Lat.	2	710478	collect	1	0.0	False
711.487	0.0	2Suff w/o Lat.	22	711487	breathlessly	1	0.0	False
712.504	0.0	0Suff w/o Lat.	2	712504	critic	1	0.0	False
713.446	0.0	0Suff NW	4	713446	dester	0	1.0	False
714.379	0.0	0Suff w/o Lat.	2	714379	lone	1	0.0	False
715.446	0.0	0Suff w/o Lat.	2	715446	argue	1	0.0	False
716.438	0.0	2Suff RealStemNW	25	716438	intentality	0	1.0	False
717.889	0.0	2Suff RealStemNW	25	717889	suitfulness	0	1.0	False
719.481	0.0	0Suff NW	4	719481	feam	0	1.0	False
720.764	0.0	0Suff w/o Lat.	2	720764	dread	1	0.0	False
722.073	0.0	2Suff RealStemNW	25	722073	quizzally	0	1.0	False
723.957	0.0	2Suff PseudoStemNW	24	723957	ludsily	0	1.0	False
724.982	0.0	2Suff RealStemNW	25	724982	ordinfully	0	1.0	False
726.074	0.0	2Suff w/o Lat.	22	726074	suitably	1	0.0	False
727.233	0.0	2Suff PseudoStemNW	24	727233	seetably	0	1.0	False
728.133	0.0	1Suff RealStemNW	15	728133	composian	0	1.0	False
729.342	0.0	2Suff PseudoStemNW	24	729342	fipitation	0	1.0	False
730.434	0.0	2Suff PseudoStemNW	24	730434	gunderfully	0	1.0	False
731.451	0.0	0Suff w/o Lat.	2	731451	abolish	1	0.0	False
732.643	0.0	0Suff w/o Lat.	2	732643	clinic	1	0.0	False
733.777	0.0	1Suff w/o Lat.	12	733777	truthful	1	0.0	False
734.71	0.0	2Suff w/o Lat.	22	734710	modernization	1	0.0	False
735.794	0.0	2Suff RealStemNW	25	735794	customantly	0	1.0	False
737.061	0.0	2Suff PseudoStemNW	24	737061	rinchfully	0	1.0	False
738.412	0.0	2Suff w/o Lat.	22	738412	collectively	1	0.0	False
739.712	0.0	1Suff RealStemNW	15	739712	falsant	0	1.0	False
740.679	0.0	2Suff w/o Lat.	22	740679	critically	1	0.0	False
742.154	0.0	2Suff RealStemNW	25	742154	nationantly	0	1.0	False
743.522	0.0	1Suff PseudoStemNW	14	743522	cutfural	0	1.0	False
744.497	0.0	2Suff Composite	23	744497	limitation	1	0.0	False
745.689	0.0	2Suff w/o Lat.	22	745689	excellently	1	0.0	False
747.164	0.0	0Suff NW	4	747164	lond	0	1.0	False
748.265	0.0	2Suff PseudoStemNW	24	748265	abadilionist	0	1.0	False
749.382	0.0	2Suff RealStemNW	25	749382	magicical	0	1.0	False
750.732	0.0	0Suff NW	4	750732	fortord	0	1.0	False
752.308	0.0	2Suff w/o Lat.	22	752308	loneliness	1	0.0	False
753.466	0.0	1Suff w/o Lat.	12	753466	beautiful	1	0.0	False
754.575	0.0	0Suff NW	4	754575	indlidst	0	1.0	False
755.609	0.0	2Suff w/o Lat.	22	755609	cyclical	1	0.0	False
756.767	0.0	1Suff w/o Lat.	12	756767	preferable	1	0.0	False
757.868	0.0	2Suff RealStemNW	25	757868	joyality	0	1.0	False
759.376	0.0	0Suff w/o Lat.	2	759376	mercy	1	0.0	False
760.418	0.0	1Suff w/o Lat.	12	760418	customary	1	1.0	True
761.644	0.0	2Suff w/o Lat.	22	761644	personalize	1	0.0	False
762.661	0.0	1Suff PseudoStemNW	14	762661	lokely	0	1.0	False
763.653	0.0	2Suff PseudoStemNW	24	763653	feamfully	0	1.0	False
764.903	0.0	1Suff RealStemNW	15	764903	relentable	0	1.0	False
766.27	0.0	2Suff PseudoStemNW	24	766270	onwertionable	0	1.0	False
768.229	0.0	1Suff w/o Lat.	12	768229	victimize	1	0.0	False
770.497	0.0	2Suff RealStemNW	25	770497	continliness	0	1.0	False
771.572	0.0	2Suff w/o Lat.	22	771572	optically	1	0.0	False
773.522	0.0	2Suff w/o Lat.	22	773522	luckily	1	0.0	False
774.564	0.0	1Suff PseudoStemNW	14	774564	indlidstive	0	1.0	False
775.598	0.0	0Suff w/o Lat.	2	775598	art	1	0.0	False
776.582	0.0	2Suff PseudoStemNW	24	776582	perfallionism	0	1.0	False
777.624	0.0	0Suff w/o Lat.	2	777624	cease	1	0.0	False
778.649	0.0	2Suff w/ Lat.	21	778649	exclusiveness	1	0.0	False
779.824	0.0	0Suff NW	4	779824	atstart	0	1.0	False
780.791	0.0	0Suff w/o Lat.	2	780791	comfort	1	0.0	False
781.767	0.0	2Suff RealStemNW	25	781767	victimilessly	0	1.0	False
783.225	0.0	1Suff RealStemNW	15	783225	passionion	0	1.0	False
784.593	0.0	0Suff w/o Lat.	2	784593	instinct	1	0.0	False
785.61	0.0	0Suff w/o Lat.	2	785610	just	1	0.0	False
786.601	0.0	0Suff w/o Lat.	2	786601	fever	1	0.0	False
787.485	0.0	0Suff w/o Lat.	2	787485	fool	1	0.0	False
788.302	0.0	2Suff w/o Lat.	22	788302	humanistic	1	0.0	False
789.336	0.0	1Suff w/o Lat.	12	789336	selfish	1	0.0	False
790.186	0.0	0Suff NW	4	790186	meleft	0	1.0	False
791.278	0.0	0Suff NW	4	791278	sedule	0	1.0	False
792.462	0.0	0Suff w/o Lat.	2	792462	care	1	0.0	False
793.47	0.0	2Suff RealStemNW	25	793470	selectfully	0	0.0	True
794.671	0.0	2Suff w/o Lat.	22	794671	argumentative	1	0.0	False
795.954	0.0	2Suff w/o Lat.	22	795954	powerfully	1	0.0	False
796.788	0.0	1Suff RealStemNW	15	796788	selectful	0	0.0	True
797.73	0.0	0Suff NW	4	797730	murpy	0	1.0	False
798.697	0.0	1Suff w/o Lat.	12	798697	mournful	1	0.0	False
799.839	0.0	2Suff w/o Lat.	22	799839	customarily	1	0.0	False
801.289	0.0	2Suff PseudoStemNW	24	801289	ewilsential	0	1.0	False
802.281	0.0	0Suff NW	4	802281	copperce	0	1.0	False
803.323	0.0	2Suff PseudoStemNW	24	803323	selvation	0	1.0	False
804.632	0.0	0Suff w/o Lat.	2	804632	industry	1	0.0	False
805.682	0.0	1Suff RealStemNW	15	805682	stylify	0	1.0	False
807.3	0.0	1Suff w/o Lat.	12	807300	drunken	1	0.0	False
808.542	0.0	2Suff PseudoStemNW	24	808542	colliffively	0	1.0	False
809.609	0.0	0Suff NW	4	809609	awn	0	1.0	False
810.992	0.0	1Suff w/o Lat.	12	810992	argument	1	0.0	False
811.968	0.0	0Suff w/o Lat.	2	811968	comic	1	0.0	False
813.018	0.0	1Suff w/o Lat.	12	813018	artist	1	0.0	False
814.068	0.0	1Suff RealStemNW	15	814068	careable	0	n/a	False
816.469	0.0	2Suff w/o Lat.	22	816469	brutalize	1	1.0	True
817.869	0.0	2Suff PseudoStemNW	24	817869	healtily	0	1.0	False
818.97	0.0	1Suff w/o Lat.	12	818970	procedure	1	0.0	False
820.854	0.0	2Suff Composite	23	820854	sensation	1	0.0	False
821.829	0.0	2Suff RealStemNW	25	821829	brutional	0	1.0	False
823.93	0.0	2Suff w/o Lat.	22	823930	activate	1	0.0	False
825.013	0.0	2Suff w/o Lat.	22	825013	virtuosity	1	0.0	False
826.856	0.0	1Suff PseudoStemNW	14	826856	rinchful	0	1.0	False
827.856	0.0	1Suff RealStemNW	15	827856	flexless	0	1.0	False
829.623	0.0	0Suff w/o Lat.	2	829623	effort	1	0.0	False
830.523	0.0	2Suff w/o Lat.	22	830523	dreadfully	1	0.0	False
831.699	0.0	0Suff NW	4	831699	assork	0	1.0	False
832.657	0.0	2Suff w/o Lat.	22	832657	carelessness	1	0.0	False
834.166	0.0	2Suff w/o Lat.	22	834166	continuously	1	0.0	False
835.05	0.0	1Suff w/o Lat.	12	835050	collective	1	0.0	False
835.9	0.0	0Suff w/ Lat.	1	835900	effect	1	0.0	False
836.942	0.0	1Suff w/o Lat.	12	836942	powerful	1	0.0	False
837.826	0.0	2Suff w/o Lat.	22	837826	beautifully	1	0.0	False
838.926	0.0	2Suff RealStemNW	25	838926	useiveness	0	1.0	False
840.293	0.0	0Suff w/o Lat.	2	840293	tactic	1	0.0	False
841.268	0.0	2Suff RealStemNW	25	841268	stylional	0	1.0	False
842.26	0.0	1Suff w/o Lat.	12	842260	rightful	1	0.0	False
843.286	0.0	1Suff w/o Lat.	12	843286	existence	1	0.0	False
885.149	0.0	0Suff w/o Lat.	2	885149	FALSE	1	0.0	False
886.132	0.0	2Suff w/o Lat.	22	886132	hastily	1	0.0	False
887.166	0.0	1Suff RealStemNW	15	887166	tireable	0	1.0	False
888.408	0.0	0Suff w/o Lat.	2	888408	continue	1	0.0	False
889.325	0.0	1Suff RealStemNW	15	889325	selfory	0	1.0	False
890.4	0.0	0Suff w/o Lat.	2	890400	prefer	1	0.0	False
891.375	0.0	1Suff PseudoStemNW	14	891375	flivitual	0	1.0	False
892.384	0.0	1Suff PseudoStemNW	14	892384	pipsonal	0	1.0	False
893.384	0.0	2Suff PseudoStemNW	24	893384	effornively	0	1.0	False
894.485	0.0	1Suff w/o Lat.	12	894485	broker	1	0.0	False
895.577	0.0	0Suff NW	4	895577	esress	0	1.0	False
896.527	0.0	2Suff w/o Lat.	22	896527	monumentally	1	0.0	False
897.752	0.0	0Suff w/o Lat.	2	897752	sense	1	0.0	False
898.578	0.0	0Suff NW	4	898578	nolfs	0	1.0	False
899.52	0.0	0Suff w/o Lat.	2	899520	breath	1	0.0	False
900.478	0.0	1Suff PseudoStemNW	14	900478	omlical	0	1.0	False
901.387	0.0	0Suff w/o Lat.	2	901387	fortune	1	0.0	False
902.254	0.0	2Suff PseudoStemNW	24	902254	eschessionist	0	1.0	False
903.279	0.0	1Suff RealStemNW	15	903279	drunkor	0	1.0	False
904.363	0.0	2Suff RealStemNW	25	904363	legalability	0	1.0	False
905.421	0.0	0Suff w/o Lat.	2	905421	vaccine	1	0.0	False
906.355	0.0	2Suff PseudoStemNW	24	906355	flivituality	0	1.0	False
907.339	0.0	1Suff w/o Lat.	12	907339	national	1	0.0	False
908.297	0.0	2Suff w/o Lat.	22	908297	drunkenness	1	0.0	False
909.373	0.0	2Suff PseudoStemNW	24	909373	sarumentally	0	1.0	False
910.331	0.0	1Suff w/o Lat.	12	910331	classic	1	0.0	False
911.24	0.0	2Suff w/o Lat.	22	911240	sharpener	1	0.0	False
912.24	0.0	0Suff w/o Lat.	2	912240	commerce	1	0.0	False
913.349	0.0	2Suff w/o Lat.	22	913349	mercifully	1	0.0	False
914.374	0.0	2Suff w/o Lat.	22	914374	commercialize	1	0.0	False
915.325	0.0	0Suff NW	4	915325	connurt	0	1.0	False
916.316	0.0	2Suff w/o Lat.	22	916316	foolishly	1	0.0	False
917.467	0.0	1Suff RealStemNW	15	917467	selfable	0	0.0	True
918.651	0.0	2Suff w/o Lat.	22	918651	comically	1	0.0	False
919.551	0.0	0Suff w/o Lat.	2	919551	method	1	0.0	False
920.501	0.0	1Suff RealStemNW	15	920501	merciable	0	1.0	False
921.827	0.0	2Suff PseudoStemNW	24	921827	shactener	0	1.0	False
922.869	0.0	2Suff w/o Lat.	22	922869	relentlessly	1	0.0	False
923.986	0.0	2Suff w/o Lat.	22	923986	senselessly	1	0.0	False
924.936	0.0	2Suff Composite	23	924936	annexation	1	0.0	False
926.345	0.0	2Suff RealStemNW	25	926345	hastery	0	1.0	False
927.637	0.0	0Suff NW	4	927637	hunen	0	1.0	False
928.612	0.0	2Suff PseudoStemNW	24	928612	flivitually	0	1.0	False
929.704	0.0	0Suff w/o Lat.	2	929704	noise	1	0.0	False
931.113	0.0	2Suff w/ Lat.	21	931113	provisional	1	0.0	False
932.08	0.0	0Suff w/o Lat.	2	932080	civil	1	0.0	False
932.947	0.0	2Suff PseudoStemNW	24	932947	foffification	0	1.0	False
933.964	0.0	2Suff w/o Lat.	22	933964	computerize	1	0.0	False
935.414	0.0	0Suff w/o Lat.	2	935414	end	1	0.0	False
936.248	0.0	2Suff w/o Lat.	22	936248	modernistic	1	0.0	False
937.248	0.0	0Suff w/o Lat.	2	937248	region	1	0.0	False
938.148	0.0	2Suff PseudoStemNW	24	938148	efforniveness	0	1.0	False
939.524	0.0	2Suff w/o Lat.	22	939524	uselessly	1	0.0	False
940.916	0.0	0Suff NW	4	940916	effern	0	1.0	False
941.966	0.0	2Suff PseudoStemNW	24	941966	patudation	0	1.0	False
943.116	0.0	2Suff w/o Lat.	22	943116	procedural	1	0.0	False
944.45	0.0	1Suff RealStemNW	15	944450	foolory	0	1.0	False
945.559	0.0	2Suff Composite	23	945559	solipsistic	1	1.0	True
946.509	0.0	1Suff w/o Lat.	12	946509	falsify	1	1.0	True
947.301	0.0	0Suff w/o Lat.	2	947301	suit	1	0.0	False
948.235	0.0	1Suff PseudoStemNW	14	948235	recrernive	0	1.0	False
949.318	0.0	0Suff NW	4	949318	nead	0	1.0	False
950.385	0.0	1Suff w/o Lat.	12	950385	sensible	1	0.0	False
951.402	0.0	1Suff RealStemNW	15	951402	industryic	0	1.0	False
952.478	0.0	0Suff w/o Lat.	2	952478	love	1	0.0	False
953.345	0.0	0Suff NW	4	953345	omlic	0	1.0	False
954.57	0.0	1Suff PseudoStemNW	14	954570	elpardive	0	1.0	False
955.579	0.0	2Suff PseudoStemNW	24	955579	mymbolically	0	1.0	False
956.554	0.0	1Suff w/o Lat.	12	956554	comparative	1	0.0	False
957.846	0.0	2Suff PseudoStemNW	24	957846	connurtivity	0	1.0	False
958.821	0.0	1Suff w/o Lat.	12	958821	secondary	1	0.0	False
959.93	0.0	1Suff RealStemNW	15	959930	assertful	0	1.0	False
961.605	0.0	2Suff PseudoStemNW	24	961605	excrodively	0	1.0	False
962.823	0.0	0Suff w/ Lat.	1	962823	explode	1	0.0	False
963.823	0.0	2Suff Composite	23	963823	degradation	1	0.0	False
964.948	0.0	0Suff NW	4	964948	selp	0	1.0	False
966.032	0.0	1Suff w/o Lat.	12	966032	noisy	1	0.0	False
966.99	0.0	2Suff w/o Lat.	22	966990	suitability	1	0.0	False
967.957	0.0	2Suff w/o Lat.	22	967957	fertilization	1	0.0	False
968.858	0.0	0Suff NW	4	968858	styke	0	1.0	False
969.841	0.0	1Suff RealStemNW	15	969841	fearive	0	1.0	False
971.017	0.0	0Suff w/o Lat.	2	971017	wonder	1	0.0	False
972.034	0.0	2Suff PseudoStemNW	24	972034	comberatively	0	1.0	False
973.142	0.0	1Suff w/ Lat.	11	973142	objection	1	0.0	False
974.101	0.0	1Suff PseudoStemNW	14	974101	crerical	0	1.0	False
975.068	0.0	0Suff NW	4	975068	massien	0	1.0	False
976.227	0.0	2Suff w/o Lat.	22	976227	modulation	1	0.0	False
978.044	0.0	2Suff RealStemNW	25	978044	commerceantly	0	1.0	False
979.194	0.0	1Suff w/o Lat.	12	979194	dreadful	1	0.0	False
980.203	0.0	2Suff PseudoStemNW	24	980203	retendlessly	0	1.0	False
981.553	0.0	1Suff w/o Lat.	12	981553	selective	1	0.0	False
982.629	0.0	2Suff PseudoStemNW	24	982629	perfallionist	0	1.0	False
983.646	0.0	0Suff w/o Lat.	2	983646	vary	1	0.0	False
984.671	0.0	1Suff w/o Lat.	12	984671	causal	1	0.0	False
985.963	0.0	2Suff RealStemNW	25	985963	attentfully	0	0.0	True
987.764	0.0	0Suff NW	4	987764	colliff	0	1.0	False
988.68	0.0	1Suff w/o Lat.	12	988680	clinical	1	0.0	False
989.739	0.0	1Suff PseudoStemNW	14	989739	obwertive	0	1.0	False
990.689	0.0	2Suff w/o Lat.	22	990689	comfortably	1	0.0	False
992.015	0.0	2Suff PseudoStemNW	24	992015	selvuality	0	1.0	False
993.549	0.0	1Suff w/o Lat.	12	993549	selfless	1	0.0	False
994.391	0.0	0Suff NW	4	994391	pimer	0	1.0	False
995.424	0.0	0Suff w/o Lat.	2	995424	beauty	1	0.0	False
996.7	0.0	1Suff w/o Lat.	12	996700	breathless	1	0.0	False
997.65	0.0	2Suff PseudoStemNW	24	997650	cladsification	0	1.0	False
998.675	0.0	0Suff w/o Lat.	2	998675	proceed	1	0.0	False
999.684	0.0	1Suff PseudoStemNW	14	999684	selvual	0	1.0	False
1000.726	0.0	2Suff RealStemNW	25	1000726	regionical	0	1.0	False
1002.293	0.0	0Suff NW	4	1002293	prosood	0	1.0	False
1003.202	0.0	2Suff w/ Lat.	21	1003202	objectively	1	0.0	False
1004.519	0.0	2Suff w/o Lat.	22	1004519	measurably	1	0.0	False
1005.502	0.0	2Suff RealStemNW	25	1005502	noticeator	0	1.0	False
1006.828	0.0	0Suff NW	4	1006828	kibs	0	1.0	False
1007.761	0.0	0Suff w/o Lat.	2	1007761	spirit	1	0.0	False
1008.878	0.0	0Suff w/ Lat.	1	1008878	except	1	0.0	False
1009.979	0.0	2Suff w/o Lat.	22	1009979	ownership	1	0.0	False
1011.387	0.0	2Suff w/o Lat.	22	1011387	methodically	1	0.0	False
1012.438	0.0	2Suff RealStemNW	25	1012438	excessfully	0	0.0	True
1013.905	0.0	2Suff w/o Lat.	22	1013905	nationalist	1	0.0	False
1017.531	0.0	0Suff NW	4	1017531	creric	0	1.0	False
1018.506	0.0	2Suff w/o Lat.	22	1018506	artfully	1	0.0	False
1019.448	0.0	2Suff RealStemNW	25	1019448	admirical	0	1.0	False
1020.832	0.0	1Suff w/ Lat.	11	1020832	effective	1	0.0	False
1021.999	0.0	1Suff w/o Lat.	12	1021999	methodical	1	0.0	False
1023.141	0.0	0Suff NW	4	1023141	vetcine	0	1.0	False
1024.133	0.0	2Suff RealStemNW	25	1024133	industriantly	0	1.0	False
1025.525	0.0	2Suff PseudoStemNW	24	1025525	sothodically	0	1.0	False
1026.484	0.0	2Suff w/o Lat.	22	1026484	usefulness	1	0.0	False
1027.859	0.0	2Suff RealStemNW	25	1027859	instinctfully	0	0.0	True
1029.568	0.0	2Suff PseudoStemNW	24	1029568	flivitualism	0	1.0	False
1030.61	0.0	2Suff RealStemNW	25	1030610	heroliness	0	1.0	False
1031.61	0.0	2Suff RealStemNW	25	1031610	fertilability	0	0.0	True
1032.794	0.0	0Suff w/o Lat.	2	1032794	master	1	0.0	False
1033.803	0.0	0Suff w/ Lat.	1	1033803	excess	1	0.0	False
1034.736	0.0	1Suff w/o Lat.	12	1034736	masterful	1	0.0	False
1035.762	0.0	1Suff w/o Lat.	12	1035762	virtuous	1	0.0	False
1036.837	0.0	2Suff PseudoStemNW	24	1036837	contitually	0	0.0	True
1037.671	0.0	0Suff w/o Lat.	2	1037671	moment	1	0.0	False
1038.663	0.0	2Suff RealStemNW	25	1038663	criticical	0	1.0	False
1040.355	0.0	1Suff PseudoStemNW	14	1040355	awnful	0	1.0	False
1041.438	0.0	1Suff w/o Lat.	12	1041438	noticeable	1	0.0	False
1042.597	0.0	1Suff w/o Lat.	12	1042597	joyous	1	0.0	False
1043.789	0.0	2Suff RealStemNW	25	1043789	objectfully	0	0.0	True
1044.789	0.0	2Suff w/o Lat.	22	1044789	confidential	1	0.0	False
1045.981	0.0	2Suff PseudoStemNW	24	1045981	provacional	0	1.0	False
1047.674	0.0	2Suff PseudoStemNW	24	1047674	mourdfully	0	1.0	False
1048.707	0.0	2Suff Composite	23	1048707	embarkation	1	1.0	True
1049.708	0.0	1Suff w/ Lat.	11	1049708	institution	1	0.0	False
1050.791	0.0	2Suff PseudoStemNW	24	1050791	coyimally	0	1.0	False
1051.692	0.0	0Suff w/o Lat.	2	1051692	prophet	1	0.0	False
1053.475	0.0	1Suff PseudoStemNW	14	1053475	moolurable	0	1.0	False
1054.492	0.0	2Suff PseudoStemNW	24	1054492	pipsonalize	0	1.0	False
1055.551	0.0	1Suff PseudoStemNW	14	1055551	shacten	0	1.0	False
1056.501	0.0	2Suff w/o Lat.	22	1056501	carelessly	1	0.0	False
1057.61	0.0	2Suff w/o Lat.	22	1057610	continually	1	0.0	False
1058.935	0.0	1Suff RealStemNW	15	1058935	effortable	0	0.0	True
1059.944	0.0	1Suff w/o Lat.	12	1059944	fertilize	1	0.0	False
1061.22	0.0	1Suff w/ Lat.	11	1061220	composite	1	0.0	False
1062.42	0.0	0Suff w/o Lat.	2	1062420	tire	1	0.0	False
1063.487	0.0	0Suff NW	4	1063487	gried	0	1.0	False
1064.596	0.0	0Suff NW	4	1064596	cedil	0	1.0	False
1065.579	0.0	2Suff RealStemNW	25	1065579	embarkfully	0	0.0	True
1066.671	0.0	0Suff NW	4	1066671	flivit	0	1.0	False
1067.646	0.0	2Suff w/o Lat.	22	1067646	slippery	1	0.0	False
1068.73	0.0	1Suff PseudoStemNW	14	1068730	coatageous	0	1.0	False
1070.339	0.0	2Suff w/o Lat.	22	1070339	fearfully	1	0.0	False
1071.406	0.0	0Suff NW	4	1071406	contitum	0	1.0	False
1072.406	0.0	1Suff PseudoStemNW	14	1072406	comburer	0	1.0	False
1073.415	0.0	1Suff w/o Lat.	12	1073415	symbolic	1	0.0	False
1074.732	0.0	1Suff RealStemNW	15	1074732	monumentic	0	1.0	False
1077.024	0.0	0Suff w/o Lat.	2	1077024	second	1	0.0	False
1078.091	0.0	1Suff RealStemNW	15	1078091	admirless	0	0.0	True
1079.258	0.0	0Suff w/o Lat.	2	1079258	kind	1	0.0	False
1080.384	0.0	0Suff w/o Lat.	2	1080384	monument	1	0.0	False
1081.442	0.0	1Suff PseudoStemNW	14	1081442	arbument	0	1.0	False
1082.526	0.0	2Suff Composite	23	1082526	filtration	1	n/a	False
1084.927	0.0	1Suff w/o Lat.	12	1084927	feverish	1	0.0	False
1086.202	0.0	2Suff RealStemNW	25	1086202	flexfulness	0	1.0	False
1087.269	0.0	1Suff w/o Lat.	12	1087269	stylist	1	0.0	False
1088.178	0.0	0Suff NW	4	1088178	arbub	0	1.0	False
1089.145	0.0	2Suff RealStemNW	25	1089145	nationical	0	1.0	False
1090.278	0.0	1Suff w/o Lat.	12	1090278	modulate	1	0.0	False
1091.504	0.0	1Suff w/o Lat.	12	1091504	legalize	1	0.0	False
1092.421	0.0	2Suff w/ Lat.	21	1092421	intentional	1	0.0	False
1093.479	0.0	1Suff PseudoStemNW	14	1093479	obwertion	0	1.0	False
1094.455	0.0	2Suff PseudoStemNW	24	1094455	massienately	0	1.0	False
1095.438	0.0	2Suff Composite	23	1095438	identical	1	0.0	False
1096.397	0.0	1Suff w/o Lat.	12	1096397	fruitless	1	0.0	False
1097.297	0.0	0Suff w/o Lat.	2	1097297	brute	1	0.0	False
1098.889	0.0	1Suff w/o Lat.	12	1098889	civilize	1	0.0	False
1099.798	0.0	1Suff PseudoStemNW	14	1099798	precukable	0	1.0	False
1100.657	0.0	1Suff RealStemNW	15	1100657	fertilist	0	1.0	False
1102.065	0.0	1Suff w/o Lat.	12	1102065	active	1	0.0	False
1102.991	0.0	2Suff w/o Lat.	22	1102991	significant	1	0.0	False
1103.966	0.0	2Suff w/o Lat.	22	1103966	clinically	1	0.0	False
1105.0	0.0	0Suff NW	4	1105000	coyim	0	1.0	False
1105.892	0.0	2Suff Composite	23	1105892	victimization	1	0.0	False
1107.117	0.0	1Suff RealStemNW	15	1107117	provisate	0	1.0	False
1108.159	0.0	1Suff w/o Lat.	12	1108159	traditional	1	0.0	False
1109.259	0.0	0Suff w/o Lat.	2	1109259	nation	1	0.0	False
1110.21	0.0	2Suff PseudoStemNW	24	1110210	faicification	0	1.0	False
1111.627	0.0	1Suff w/ Lat.	11	1111627	exclusive	1	0.0	False
1112.794	0.0	1Suff w/o Lat.	12	1112794	helpful	1	0.0	False
1113.711	0.0	2Suff w/o Lat.	22	1113711	truthfulness	1	0.0	False
1114.769	0.0	1Suff w/o Lat.	12	1114769	abolition	1	0.0	False
1115.803	0.0	1Suff w/o Lat.	12	1115803	signify	1	0.0	False
1116.87	0.0	2Suff RealStemNW	25	1116870	creatously	0	1.0	False
1117.945	0.0	0Suff NW	4	1117945	rebuin	0	1.0	False
1119.237	0.0	1Suff PseudoStemNW	14	1119237	franical	0	1.0	False
1120.246	0.0	2Suff PseudoStemNW	24	1120246	moolurably	0	1.0	False
1121.221	0.0	2Suff RealStemNW	25	1121221	actality	0	1.0	False
1122.43	0.0	2Suff w/o Lat.	22	1122430	sensibly	1	0.0	False
1123.539	0.0	0Suff w/o Lat.	2	1123539	courage	1	0.0	False
1124.656	0.0	1Suff RealStemNW	15	1124656	causic	0	0.0	True
1125.939	0.0	1Suff RealStemNW	15	1125939	commerceic	0	1.0	False
1127.207	0.0	2Suff w/o Lat.	22	1127207	drunkenly	1	0.0	False
1128.29	0.0	1Suff RealStemNW	15	1128290	truthive	0	1.0	False
1129.391	0.0	0Suff NW	4	1129391	lecer	0	1.0	False
1130.516	0.0	2Suff w/o Lat.	22	1130516	mercilessly	1	0.0	False
1132.15	0.0	0Suff NW	4	1132150	boofty	0	1.0	False
1133.183	0.0	0Suff NW	4	1133183	efforn	0	1.0	False
1134.284	0.0	0Suff NW	4	1134284	freat	0	1.0	False
1135.342	0.0	0Suff NW	4	1135342	conspode	0	1.0	False
1136.293	0.0	0Suff NW	4	1136293	haint	0	1.0	False
1137.193	0.0	1Suff w/o Lat.	12	1137193	confidence	1	0.0	False
1138.468	0.0	2Suff PseudoStemNW	24	1138468	vetcination	0	1.0	False
1139.502	0.0	1Suff RealStemNW	15	1139502	creatful	0	1.0	False
1140.544	0.0	2Suff w/o Lat.	22	1140544	passionately	1	0.0	False
1142.019	0.0	0Suff NW	4	1142019	comfern	0	1.0	False
1143.32	0.0	1Suff RealStemNW	15	1143320	collectful	0	0.0	True
1144.754	0.0	1Suff w/o Lat.	12	1144754	variable	1	0.0	False
1145.896	0.0	0Suff w/o Lat.	2	1145896	virtue	1	0.0	False
1146.854	0.0	2Suff PseudoStemNW	24	1146854	cankfully	0	1.0	False
1147.913	0.0	0Suff w/ Lat.	1	1147913	object	1	0.0	False
1149.038	0.0	0Suff w/o Lat.	2	1149038	tradition	1	0.0	False
1150.114	0.0	2Suff RealStemNW	25	1150114	selfiousness	0	0.0	True
1151.331	0.0	1Suff w/o Lat.	12	1151331	merciful	1	0.0	False
1152.581	0.0	2Suff w/o Lat.	22	1152581	spiritualize	1	0.0	False
1182.107	0.0	1Suff PseudoStemNW	14	1182107	sothodical	0	1.0	False
1183.115	0.0	1Suff PseudoStemNW	14	1183115	hainy	0	1.0	False
1184.091	0.0	0Suff w/o Lat.	2	1184091	create	1	0.0	False
1184.966	0.0	0Suff NW	4	1184966	feal	0	1.0	False
1185.925	0.0	0Suff w/o Lat.	2	1185925	luck	1	0.0	False
1186.717	0.0	2Suff w/o Lat.	22	1186717	joyously	1	0.0	False
1187.709	0.0	2Suff Composite	23	1187709	classification	1	0.0	False
1188.684	0.0	1Suff PseudoStemNW	14	1188684	broler	0	1.0	False
1189.609	0.0	2Suff w/o Lat.	22	1189609	kindliness	1	1.0	True
1190.868	0.0	1Suff w/o Lat.	12	1190868	wonderful	1	0.0	False
1191.81	0.0	1Suff w/ Lat.	11	1191810	excessive	1	0.0	False
1192.81	0.0	2Suff RealStemNW	25	1192810	variality	0	0.0	True
1194.002	0.0	2Suff PseudoStemNW	24	1194002	soripsistic	0	1.0	False
1194.969	0.0	0Suff w/o Lat.	2	1194969	excel	1	0.0	False
1195.953	0.0	1Suff w/o Lat.	12	1195953	respective	1	0.0	False
1196.878	0.0	1Suff PseudoStemNW	14	1196878	exfallent	0	1.0	False
1197.82	0.0	1Suff w/o Lat.	12	1197820	monumental	1	0.0	False
1198.895	0.0	2Suff w/o Lat.	22	1198895	truthfully	1	0.0	False
1199.821	0.0	2Suff w/ Lat.	21	1199821	effectively	1	0.0	False
1200.696	0.0	2Suff Composite	23	1200696	paradoxical	1	1.0	True
1201.654	0.0	1Suff RealStemNW	15	1201654	kinden	0	1.0	False
1202.997	0.0	2Suff Composite	23	1202997	quizzical	1	1.0	True
1204.455	0.0	1Suff PseudoStemNW	14	1204455	arpive	0	1.0	False
1205.464	0.0	2Suff RealStemNW	25	1205464	humanional	0	1.0	False
1206.531	0.0	1Suff w/o Lat.	12	1206531	tireless	1	0.0	False
1207.765	0.0	2Suff PseudoStemNW	24	1207765	flivitualize	0	1.0	False
1208.74	0.0	1Suff RealStemNW	15	1208740	needable	0	1.0	False
1210.324	0.0	1Suff w/o Lat.	12	1210324	artful	1	0.0	False
1211.316	0.0	2Suff PseudoStemNW	24	1211316	grearively	0	1.0	False
1212.633	0.0	2Suff RealStemNW	25	1212633	actfully	0	0.0	True
1213.667	0.0	2Suff PseudoStemNW	24	1213667	comfernably	0	1.0	False
1215.084	0.0	2Suff PseudoStemNW	24	1215084	arbumentative	0	1.0	False
1216.726	0.0	0Suff w/o Lat.	2	1216726	legal	1	0.0	False
1217.668	0.0	1Suff RealStemNW	15	1217668	legalist	0	0.0	True
1218.901	0.0	2Suff RealStemNW	25	1218901	actional	0	0.0	True
1220.519	0.0	0Suff NW	4	1220519	sothod	0	1.0	False
1221.511	0.0	1Suff RealStemNW	15	1221511	effectful	0	0.0	True
1222.636	0.0	1Suff w/o Lat.	12	1222636	modernist	1	0.0	False
1223.72	0.0	1Suff RealStemNW	15	1223720	mournive	0	1.0	False
1225.212	0.0	1Suff w/o Lat.	12	1225212	needless	1	0.0	False
1226.145	0.0	2Suff PseudoStemNW	24	1226145	lurtilizer	0	1.0	False
1227.237	0.0	1Suff RealStemNW	15	1227237	justant	0	1.0	False
1228.654	0.0	0Suff NW	4	1228654	vectue	0	1.0	False
1229.83	0.0	2Suff RealStemNW	25	1229830	couragliness	0	1.0	False
1231.38	0.0	1Suff w/o Lat.	12	1231380	attentive	1	0.0	False
1232.347	0.0	0Suff w/o Lat.	2	1232347	passion	1	0.0	False
1233.156	0.0	1Suff w/o Lat.	12	1233156	brutal	1	0.0	False
1234.198	0.0	1Suff PseudoStemNW	14	1234198	selvible	0	1.0	False
1235.24	0.0	2Suff RealStemNW	25	1235240	classally	0	1.0	False
1236.465	0.0	2Suff RealStemNW	25	1236465	alterlessly	0	1.0	False
1237.449	0.0	2Suff w/o Lat.	22	1237449	regionally	1	0.0	False
1238.758	0.0	2Suff w/ Lat.	21	1238758	effectiveness	1	0.0	False
1239.833	0.0	0Suff NW	4	1239833	blunk	0	1.0	False
1240.95	0.0	2Suff RealStemNW	25	1240950	presumator	0	1.0	False
1241.842	0.0	2Suff RealStemNW	25	1241842	expressmental	0	1.0	False
1242.909	0.0	0Suff w/o Lat.	2	1242909	power	1	0.0	False
1244.051	0.0	0Suff w/o Lat.	2	1244051	notice	1	0.0	False
1244.934	0.0	1Suff PseudoStemNW	14	1244934	brealtless	0	1.0	False
1246.127	0.0	0Suff w/o Lat.	2	1246127	slip	1	1.0	True
1247.61	0.0	2Suff w/o Lat.	22	1247610	noticeably	1	0.0	False
1248.936	0.0	2Suff PseudoStemNW	24	1248936	awnfully	0	1.0	False
1250.144	0.0	0Suff NW	4	1250144	onnend	0	1.0	False
1251.47	0.0	0Suff NW	4	1251470	cronition	0	1.0	False
1252.62	0.0	1Suff RealStemNW	15	1252620	civilist	0	0.0	True
1254.354	0.0	2Suff w/o Lat.	22	1254354	tirelessly	1	0.0	False
1255.471	0.0	1Suff PseudoStemNW	14	1255471	ewilsence	0	1.0	False
1256.421	0.0	2Suff PseudoStemNW	24	1256421	pogularization	0	1.0	False
1257.447	0.0	2Suff w/o Lat.	22	1257447	admirably	1	0.0	False
1258.564	0.0	2Suff PseudoStemNW	24	1258564	cheherably	0	1.0	False
1259.522	0.0	2Suff PseudoStemNW	24	1259522	pipsonality	0	1.0	False
1260.589	0.0	1Suff PseudoStemNW	14	1260589	healty	0	1.0	False
1261.806	0.0	1Suff PseudoStemNW	14	1261806	movectize	0	1.0	False
1262.723	0.0	2Suff PseudoStemNW	24	1262723	foptration	0	1.0	False
1263.665	0.0	2Suff RealStemNW	25	1263665	computitely	0	1.0	False
1264.799	0.0	0Suff w/o Lat.	2	1264799	pure	1	0.0	False
1265.824	0.0	1Suff PseudoStemNW	14	1265824	herfal	0	1.0	False
1266.85	0.0	0Suff w/o Lat.	2	1266850	compute	1	0.0	False
1268.183	0.0	2Suff w/ Lat.	21	1268183	expressionist	1	0.0	False
1269.359	0.0	1Suff PseudoStemNW	14	1269359	expredive	0	1.0	False
1270.351	0.0	0Suff w/o Lat.	2	1270351	act	1	0.0	False
1271.234	0.0	0Suff NW	4	1271234	excrode	0	1.0	False
1272.26	0.0	2Suff PseudoStemNW	24	1272260	fortorately	0	1.0	False
1273.36	0.0	1Suff RealStemNW	15	1273360	conclusful	0	1.0	False
1275.11	0.0	2Suff w/o Lat.	22	1275110	ceaselessly	1	0.0	False
1276.353	0.0	0Suff NW	4	1276353	blead	0	1.0	False
1277.645	0.0	2Suff Composite	23	1277645	valuation	1	0.0	False
1278.787	0.0	2Suff w/o Lat.	22	1278787	wonderfully	1	0.0	False
1280.004	0.0	2Suff w/ Lat.	21	1280004	exceptional	1	0.0	False
1280.987	0.0	1Suff RealStemNW	15	1280987	institutate	0	1.0	False
1282.563	0.0	0Suff NW	4	1282563	cheher	0	1.0	False
1283.563	0.0	1Suff w/o Lat.	12	1283563	critical	1	0.0	False
1284.688	0.0	2Suff Composite	23	1284688	farcical	1	1.0	True
1286.072	0.0	0Suff w/o Lat.	2	1286072	culture	1	0.0	False
1287.898	0.0	0Suff w/o Lat.	2	1287898	joy	1	0.0	False
1288.756	0.0	1Suff w/ Lat.	11	1288756	exception	1	0.0	False
1289.732	0.0	2Suff w/o Lat.	22	1289732	selflessness	1	0.0	False
1291.065	0.0	2Suff PseudoStemNW	24	1291065	andezation	0	1.0	False
1292.082	0.0	2Suff Composite	23	1292082	whimsical	1	0.0	False
1293.258	0.0	0Suff w/o Lat.	2	1293258	confide	1	0.0	False
1294.491	0.0	2Suff RealStemNW	25	1294491	signmentive	0	1.0	False
1295.583	0.0	2Suff Composite	23	1295583	computation	1	0.0	False
1296.525	0.0	0Suff w/o Lat.	2	1296525	right	1	0.0	False
1297.376	0.0	1Suff w/o Lat.	12	1297376	senseless	1	0.0	False
1298.401	0.0	2Suff w/o Lat.	22	1298401	spiritually	1	0.0	False
1299.293	0.0	1Suff PseudoStemNW	14	1299293	indless	0	1.0	False
1300.327	0.0	2Suff w/o Lat.	22	1300327	noisily	1	0.0	False
1301.152	0.0	1Suff w/o Lat.	12	1301152	spiritual	1	0.0	False
1302.052	0.0	0Suff w/o Lat.	2	1302052	attract	1	0.0	False
1302.944	0.0	1Suff w/o Lat.	12	1302944	foolish	1	0.0	False
1303.828	0.0	1Suff w/o Lat.	12	1303828	careless	1	0.0	False
1304.661	0.0	2Suff PseudoStemNW	24	1304661	darberously	0	1.0	False
