onset	duration	trial_type	value	sample	stimulus	is_word	response	correct
56.656	0.0	1Suff w/ Lat.	11	56656	conductive	1.0	0.0	False
57.639	0.0	1Suff w/o Lat.	12	57639	powerful	1.0	0.0	False
58.423	0.0	0Suff w/o Lat.	2	58423	power	1.0	0.0	False
59.198	0.0	1Suff w/o Lat.	12	59198	brutal	1.0	0.0	False
59.982	0.0	2Suff PseudoStemNW	24	59982	comburation	0.0	0.0	True
60.674	0.0	0Suff NW	4	60674	precuke	0.0	0.0	True
61.64	0.0	0Suff w/o Lat.	2	61640	comfort	1.0	0.0	False
62.657	0.0	2Suff w/ Lat.	21	62657	provisional	1.0	0.0	False
63.866	0.0	1Suff RealStemNW	15	63866	traditionic	0.0	0.0	True
65.108	0.0	0Suff NW	4	65108	omlic	0.0	1.0	False
66.409	0.0	1Suff w/ Lat.	11	66409	inspiration	1.0	0.0	False
67.476	0.0	2Suff PseudoStemNW	24	67476	andezation	0.0	1.0	False
68.634	0.0	1Suff w/o Lat.	12	68634	artful	1.0	0.0	False
69.868	0.0	2Suff PseudoStemNW	24	69868	fortorately	0.0	1.0	False
71.068	0.0	2Suff PseudoStemNW	24	71068	sarumentally	0.0	1.0	False
72.285	0.0	2Suff w/ Lat.	21	72285	perfectionist	1.0	0.0	False
73.327	0.0	2Suff w/o Lat.	22	73327	foolishness	1.0	0.0	False
74.294	0.0	2Suff w/o Lat.	22	74294	drunkenness	1.0	0.0	False
75.145	0.0	2Suff w/o Lat.	22	75145	noticeably	1.0	0.0	False
76.153	0.0	0Suff NW	4	76153	feam	0.0	1.0	False
77.237	0.0	0Suff NW	4	77237	nead	0.0	0.0	True
78.079	0.0	2Suff PseudoStemNW	24	78079	sedulation	0.0	1.0	False
79.413	0.0	2Suff PseudoStemNW	24	79413	ewilsential	0.0	0.0	True
80.471	0.0	2Suff PseudoStemNW	24	80471	spippery	0.0	1.0	False
81.613	0.0	2Suff Composite	23	81613	voyeuristic	1.0	1.0	True
82.547	0.0	1Suff RealStemNW	15	82547	legalist	0.0	0.0	True
83.572	0.0	1Suff RealStemNW	15	83572	slippor	0.0	1.0	False
84.681	0.0	1Suff PseudoStemNW	14	84681	jokful	0.0	1.0	False
85.856	0.0	2Suff PseudoStemNW	24	85856	cutfurally	0.0	1.0	False
87.032	0.0	0Suff w/o Lat.	2	87032	comic	1.0	0.0	False
88.515	0.0	0Suff w/o Lat.	2	88515	fertile	1.0	0.0	False
89.599	0.0	1Suff w/o Lat.	12	89599	various	1.0	0.0	False
90.641	0.0	1Suff PseudoStemNW	14	90641	arbument	0.0	1.0	False
91.858	0.0	2Suff PseudoStemNW	24	91858	hettlessness	0.0	1.0	False
93.117	0.0	2Suff PseudoStemNW	24	93117	arresogical	0.0	1.0	False
94.701	0.0	2Suff PseudoStemNW	24	94701	seetably	0.0	0.0	True
96.068	0.0	2Suff w/ Lat.	21	96068	objectively	1.0	0.0	False
97.668	0.0	2Suff RealStemNW	25	97668	selfiousness	0.0	1.0	False
99.369	0.0	0Suff w/o Lat.	2	99369	wonder	1.0	0.0	False
100.619	0.0	1Suff w/o Lat.	12	100619	classic	1.0	1.0	True
101.961	0.0	1Suff w/o Lat.	12	101961	virtuous	1.0	0.0	False
103.653	0.0	2Suff RealStemNW	25	103653	selectfully	0.0	0.0	True
104.979	0.0	1Suff w/o Lat.	12	104979	helpful	1.0	0.0	False
105.862	0.0	0Suff NW	4	105862	allend	0.0	1.0	False
107.346	0.0	2Suff RealStemNW	25	107346	objectfully	0.0	0.0	True
108.447	0.0	0Suff NW	4	108447	feal	0.0	1.0	False
109.864	0.0	0Suff w/ Lat.	1	109864	express	1.0	0.0	False
111.047	0.0	2Suff w/o Lat.	22	111047	legalization	1.0	0.0	False
112.448	0.0	2Suff PseudoStemNW	24	112448	conspodively	0.0	1.0	False
113.723	0.0	1Suff w/o Lat.	12	113723	relentless	1.0	1.0	True
115.732	0.0	2Suff w/o Lat.	22	115732	comfortably	1.0	0.0	False
116.732	0.0	0Suff NW	4	116732	bruke	0.0	1.0	False
118.35	0.0	1Suff w/o Lat.	12	118350	preferable	1.0	0.0	False
119.783	0.0	0Suff w/o Lat.	2	119783	argue	1.0	0.0	False
120.909	0.0	2Suff RealStemNW	25	120909	commerceantly	0.0	1.0	False
122.351	0.0	2Suff Composite	23	122351	secularization	1.0	0.0	False
123.96	0.0	2Suff w/o Lat.	22	123960	nationalism	1.0	0.0	False
125.168	0.0	1Suff w/o Lat.	12	125168	symbolic	1.0	0.0	False
126.244	0.0	1Suff w/ Lat.	11	126244	perfection	1.0	0.0	False
127.161	0.0	2Suff PseudoStemNW	24	127161	movectization	0.0	1.0	False
128.286	0.0	0Suff NW	4	128286	tedal	0.0	1.0	False
129.378	0.0	0Suff w/o Lat.	2	129378	lust	1.0	0.0	False
130.587	0.0	1Suff w/o Lat.	12	130587	careless	1.0	0.0	False
131.562	0.0	2Suff PseudoStemNW	24	131562	flivitualism	0.0	1.0	False
132.804	0.0	2Suff RealStemNW	25	132804	ceaseiously	0.0	1.0	False
134.788	0.0	2Suff RealStemNW	25	134788	attentfully	0.0	1.0	False
136.48	0.0	2Suff RealStemNW	25	136480	stylional	0.0	0.0	True
138.047	0.0	0Suff w/o Lat.	2	138047	kind	1.0	0.0	False
139.456	0.0	0Suff w/o Lat.	2	139456	select	1.0		False
141.865	0.0	0Suff w/o Lat.	2	141865	spirit	1.0	0.0	False
142.757	0.0	2Suff w/o Lat.	22	142757	sensibly	1.0	0.0	False
143.657	0.0	0Suff NW	4	143657	arp	0.0	1.0	False
144.691	0.0	0Suff NW	4	144691	elpard	0.0	1.0	False
145.816	0.0	0Suff NW	4	145816	freat	0.0	0.0	True
146.875	0.0	2Suff RealStemNW	25	146875	respectfully	0.0	0.0	True
148.859	0.0	2Suff w/o Lat.	22	148859	drunkenly	1.0	0.0	False
149.934	0.0	1Suff w/o Lat.	12	149934	careful	1.0	0.0	False
150.826	0.0	1Suff RealStemNW	15	150826	momentish	0.0	1.0	False
152.377	0.0	2Suff RealStemNW	25	152377	instinctfully	0.0	0.0	True
154.119	0.0	0Suff NW	4	154119	shact	0.0	1.0	False
155.478	0.0	1Suff PseudoStemNW	14	155478	moolurable	0.0	1.0	False
156.728	0.0	1Suff RealStemNW	15	156728	modulion	0.0	1.0	False
158.754	0.0	0Suff w/o Lat.	2	158754	slip	1.0	0.0	False
159.871	0.0	2Suff w/o Lat.	22	159871	fearfully	1.0	0.0	False
160.846	0.0	1Suff PseudoStemNW	14	160846	ceantless	0.0	1.0	False
162.205	0.0	1Suff w/o Lat.	12	162205	humanist	1.0	0.0	False
163.313	0.0	1Suff w/o Lat.	12	163313	continual	1.0	0.0	False
164.631	0.0	2Suff RealStemNW	25	164631	computitely	0.0	1.0	False
165.923	0.0	2Suff w/o Lat.	22	165923	senselessly	1.0	0.0	False
166.881	0.0	0Suff NW	4	166881	victap	0.0	1.0	False
168.065	0.0	0Suff w/o Lat.	2	168065	fortune	1.0	0.0	False
169.715	0.0	0Suff NW	4	169715	podent	0.0	1.0	False
171.924	0.0	1Suff w/o Lat.	12	171924	prophetic	1.0	0.0	False
173.675	0.0	2Suff w/o Lat.	22	173675	sharpener	1.0	0.0	False
174.85	0.0	0Suff w/o Lat.	2	174850	right	1.0	0.0	False
175.909	0.0	2Suff PseudoStemNW	24	175909	vetcination	0.0	1.0	False
176.993	0.0	2Suff RealStemNW	25	176993	unifilessly	0.0	1.0	False
178.393	0.0	1Suff RealStemNW	15	178393	humanify	0.0	1.0	False
179.71	0.0	1Suff w/o Lat.	12	179710	kindly	1.0	0.0	False
181.086	0.0	0Suff w/o Lat.	2	181086	create	1.0	0.0	False
182.103	0.0	2Suff w/o Lat.	22	182103	industrialist	1.0	0.0	False
183.595	0.0	2Suff w/o Lat.	22	183595	fruitlessly	1.0	0.0	False
184.762	0.0	0Suff w/ Lat.	1	184762	conclude	1.0	0.0	False
185.679	0.0	2Suff RealStemNW	25	185679	selectously	0.0	1.0	False
187.071	0.0	2Suff w/o Lat.	22	187071	justification	1.0	0.0	False
188.288	0.0	0Suff w/o Lat.	2	188288	human	1.0	0.0	False
189.18	0.0	1Suff w/o Lat.	12	189180	admirable	1.0	0.0	False
190.097	0.0	1Suff w/o Lat.	12	190097	foolish	1.0	0.0	False
191.014	0.0	2Suff Composite	23	191014	victimization	1.0	0.0	False
192.072	0.0	0Suff NW	4	192072	styke	0.0	1.0	False
193.306	0.0	2Suff PseudoStemNW	24	193306	janiability	0.0	1.0	False
195.132	0.0	0Suff NW	4	195132	exprede	0.0	1.0	False
196.207	0.0	2Suff w/o Lat.	22	196207	virtuosity	1.0	0.0	False
198.399	0.0	2Suff Composite	23	198399	unification	1.0	0.0	False
200.6	0.0	2Suff PseudoStemNW	24	200600	pipsonally	0.0	1.0	False
201.85	0.0	2Suff w/o Lat.	22	201850	continuously	1.0	0.0	False
203.051	0.0	1Suff RealStemNW	15	203051	mercyive	0.0	1.0	False
204.334	0.0	2Suff w/o Lat.	22	204334	modernization	1.0	0.0	False
205.643	0.0	1Suff w/o Lat.	12	205643	critical	1.0	0.0	False
246.089	0.0	2Suff w/o Lat.	22	246089	culturally	1.0	0.0	False
247.481	0.0	1Suff RealStemNW	15	247481	careable	0.0		False
249.89	0.0	0Suff NW	4	249890	murpy	0.0	1.0	False
251.432	0.0	1Suff w/o Lat.	12	251432	joyful	1.0	0.0	False
252.533	0.0	2Suff RealStemNW	25	252533	civilability	0.0	0.0	True
254.933	0.0	2Suff w/o Lat.	22	254933	spiritualize	1.0	0.0	False
255.942	0.0	1Suff RealStemNW	15	255942	effectful	0.0	0.0	True
257.059	0.0	1Suff w/o Lat.	12	257059	variable	1.0	0.0	False
258.051	0.0	1Suff RealStemNW	15	258051	foolory	0.0	1.0	False
259.276	0.0	1Suff w/o Lat.	12	259276	optical	1.0	0.0	False
260.402	0.0	2Suff PseudoStemNW	24	260402	murpifully	0.0	1.0	False
261.844	0.0	2Suff PseudoStemNW	24	261844	retendlessly	0.0	1.0	False
263.194	0.0	2Suff PseudoStemNW	24	263194	conwodential	0.0	1.0	False
264.52	0.0	1Suff w/o Lat.	12	264520	lonely	1.0	0.0	False
265.445	0.0	0Suff w/o Lat.	2	265445	second	1.0	0.0	False
266.487	0.0	2Suff PseudoStemNW	24	266487	pogularization	0.0	1.0	False
268.037	0.0	2Suff RealStemNW	25	268037	drunkoral	0.0	1.0	False
269.279	0.0	1Suff PseudoStemNW	14	269279	franical	0.0	1.0	False
271.063	0.0	0Suff w/o Lat.	2	271063	mourn	1.0	1.0	True
272.164	0.0	1Suff RealStemNW	15	272164	passionion	0.0	0.0	True
273.164	0.0	1Suff RealStemNW	15	273164	provisate	0.0	1.0	False
274.931	0.0	1Suff w/o Lat.	12	274931	rightful	1.0	0.0	False
275.848	0.0	0Suff NW	4	275848	traphet	0.0	1.0	False
277.54	0.0	2Suff w/o Lat.	22	277540	secondarily	1.0	0.0	False
279.308	0.0	1Suff PseudoStemNW	14	279308	vetcinate	0.0	1.0	False
280.5	0.0	2Suff w/ Lat.	21	280500	inspirational	1.0	0.0	False
281.733	0.0	1Suff w/o Lat.	12	281733	merciful	1.0	0.0	False
283.325	0.0	0Suff NW	4	283325	haint	0.0	1.0	False
284.359	0.0	2Suff RealStemNW	25	284359	continliness	0.0	1.0	False
285.943	0.0	2Suff w/o Lat.	22	285943	comically	1.0	0.0	False
287.31	0.0	2Suff PseudoStemNW	24	287310	feamfully	0.0	1.0	False
288.652	0.0	1Suff w/o Lat.	12	288652	procedure	1.0	0.0	False
289.911	0.0	2Suff RealStemNW	25	289911	useiveness	0.0	1.0	False
291.245	0.0	0Suff w/ Lat.	1	291245	explode	1.0	0.0	False
292.195	0.0	2Suff w/o Lat.	22	292195	justifiable	1.0	0.0	False
293.187	0.0	2Suff RealStemNW	25	293187	alterlessly	0.0	1.0	False
295.487	0.0	2Suff w/o Lat.	22	295487	existential	1.0	0.0	False
296.396	0.0	1Suff RealStemNW	15	296396	conductful	0.0	0.0	True
297.271	0.0	1Suff RealStemNW	15	297271	assertful	0.0	0.0	True
298.747	0.0	2Suff RealStemNW	25	298747	suitfulness	0.0	1.0	False
300.456	0.0	1Suff RealStemNW	15	300456	merciable	0.0	1.0	False
302.44	0.0	1Suff RealStemNW	15	302440	needable	0.0	0.0	True
303.99	0.0	0Suff w/ Lat.	1	303990	presume	1.0	0.0	False
304.857	0.0	2Suff Composite	23	304857	maturation	1.0	0.0	False
305.841	0.0	2Suff Composite	23	305841	solipsistic	1.0	1.0	True
307.016	0.0	1Suff PseudoStemNW	14	307016	rincheous	0.0	1.0	False
308.175	0.0	2Suff RealStemNW	25	308175	joyality	0.0		False
310.584	0.0	2Suff RealStemNW	25	310584	regionical	0.0	0.0	True
311.701	0.0	2Suff w/o Lat.	22	311701	heroically	1.0	0.0	False
312.693	0.0	2Suff PseudoStemNW	24	312693	hettlessly	0.0	1.0	False
313.935	0.0	0Suff NW	4	313935	combore	0.0	1.0	False
315.26	0.0	1Suff w/o Lat.	12	315260	legalize	1.0	0.0	False
316.477	0.0	2Suff PseudoStemNW	24	316477	effornively	0.0	1.0	False
317.678	0.0	0Suff NW	4	317678	inflise	0.0	1.0	False
318.945	0.0	0Suff NW	4	318945	ind	0.0	1.0	False
320.045	0.0	1Suff w/o Lat.	12	320045	greedy	1.0	0.0	False
321.104	0.0	1Suff RealStemNW	15	321104	institutate	0.0	0.0	True
322.021	0.0	2Suff PseudoStemNW	24	322021	navounalism	0.0	1.0	False
323.138	0.0	2Suff w/o Lat.	22	323138	endlessly	1.0	0.0	False
324.03	0.0	1Suff w/o Lat.	12	324030	causal	1.0	0.0	False
325.172	0.0	2Suff Composite	23	325172	computation	1.0	0.0	False
326.114	0.0	2Suff w/o Lat.	22	326114	methodically	1.0	0.0	False
327.022	0.0	2Suff Composite	23	327022	limitation	1.0	0.0	False
328.048	0.0	0Suff NW	4	328048	prosood	0.0	1.0	False
329.506	0.0	0Suff w/o Lat.	2	329506	act	1.0	0.0	False
331.865	0.0	1Suff w/o Lat.	12	331865	slipper	1.0	0.0	False
332.782	0.0	1Suff w/o Lat.	12	332782	feverish	1.0	0.0	False
333.974	0.0	1Suff w/ Lat.	11	333974	effective	1.0	0.0	False
334.791	0.0	1Suff RealStemNW	15	334791	flexless	0.0	0.0	True
335.591	0.0	2Suff PseudoStemNW	24	335591	inglinitional	0.0		False
338.009	0.0	0Suff w/o Lat.	2	338009	care	1.0	0.0	False
338.984	0.0	1Suff PseudoStemNW	14	338984	elpardive	0.0	1.0	False
340.476	0.0	0Suff NW	4	340476	nolave	0.0		False
342.869	0.0	1Suff PseudoStemNW	14	342869	expredive	0.0	0.0	True
343.811	0.0	1Suff PseudoStemNW	14	343811	awnful	0.0	1.0	False
344.894	0.0	1Suff RealStemNW	15	344894	exceptate	0.0	1.0	False
346.345	0.0	1Suff w/ Lat.	11	346345	excessive	1.0		False
348.737	0.0	2Suff w/ Lat.	21	348737	effectiveness	1.0	0.0	False
349.763	0.0	1Suff w/o Lat.	12	349763	owner	1.0	0.0	False
350.588	0.0	1Suff PseudoStemNW	14	350588	coyimal	0.0	1.0	False
351.663	0.0	2Suff PseudoStemNW	24	351663	rinchfully	0.0		False
354.072	0.0	2Suff PseudoStemNW	24	354072	lokeliness	0.0	1.0	False
355.273	0.0	0Suff w/o Lat.	2	355273	effort	1.0	0.0	False
356.139	0.0	2Suff Composite	23	356139	hierarchical	1.0	0.0	False
357.248	0.0	0Suff w/ Lat.	1	357248	effect	1.0	0.0	False
358.14	0.0	1Suff w/o Lat.	12	358140	broker	1.0	0.0	False
359.082	0.0	1Suff RealStemNW	15	359082	modernate	0.0	0.0	True
359.891	0.0	1Suff RealStemNW	15	359891	commerceic	0.0	0.0	True
360.774	0.0	0Suff NW	4	360774	indlidst	0.0	1.0	False
361.9	0.0	2Suff RealStemNW	25	361900	fruitiously	0.0	0.0	True
363.842	0.0	1Suff RealStemNW	15	363842	composian	0.0	1.0	False
364.992	0.0	1Suff w/o Lat.	12	364992	hasty	1.0	0.0	False
365.976	0.0	2Suff PseudoStemNW	24	365976	pimerfully	0.0	1.0	False
367.493	0.0	2Suff w/ Lat.	21	367493	objectionable	1.0	0.0	False
368.543	0.0	2Suff w/o Lat.	22	368543	noisily	1.0	0.0	False
369.56	0.0	2Suff Composite	23	369560	filtration	1.0	0.0	False
370.369	0.0	2Suff w/o Lat.	22	370369	helplessness	1.0	0.0	False
371.202	0.0	2Suff RealStemNW	25	371202	admirical	0.0	0.0	True
372.019	0.0	0Suff w/ Lat.	1	372019	conduct	1.0	0.0	False
372.845	0.0	0Suff w/ Lat.	1	372845	except	1.0	0.0	False
373.787	0.0	0Suff w/o Lat.	2	373787	virtue	1.0	0.0	False
374.762	0.0	1Suff w/o Lat.	12	374762	ceaseless	1.0	0.0	False
375.612	0.0	1Suff RealStemNW	15	375612	relentable	0.0	0.0	True
377.163	0.0	2Suff w/o Lat.	22	377163	slippery	1.0	0.0	False
378.18	0.0	2Suff w/o Lat.	22	378180	brutalize	1.0	0.0	False
378.988	0.0	1Suff PseudoStemNW	14	378988	nolfy	0.0	1.0	False
380.289	0.0	2Suff w/o Lat.	22	380289	humanistic	1.0	0.0	False
382.373	0.0	2Suff Composite	23	382373	penalization	1.0	0.0	False
383.923	0.0	2Suff w/o Lat.	22	383923	mournfully	1.0	0.0	False
385.082	0.0	2Suff RealStemNW	25	385082	inspiratality	0.0	0.0	True
385.982	0.0	0Suff w/o Lat.	2	385982	module	1.0	0.0	False
386.999	0.0	0Suff w/o Lat.	2	386999	monument	1.0	0.0	False
388.241	0.0	0Suff NW	4	388241	dester	0.0	0.0	True
389.875	0.0	1Suff PseudoStemNW	14	389875	contituous	0.0	0.0	True
390.808	0.0	0Suff w/o Lat.	2	390808	danger	1.0	0.0	False
391.717	0.0	2Suff RealStemNW	25	391717	vulgarilessly	0.0	1.0	False
392.801	0.0	1Suff RealStemNW	15	392801	effortable	0.0	0.0	True
393.968	0.0	1Suff w/o Lat.	12	393968	beautiful	1.0	0.0	False
395.085	0.0	2Suff w/o Lat.	22	395085	significant	1.0	0.0	False
463.456	0.0	1Suff w/o Lat.	12	463456	signify	1.0	0.0	False
464.439	0.0	2Suff w/o Lat.	22	464439	vaccination	1.0	0.0	False
465.265	0.0	1Suff w/o Lat.	12	465265	truthful	1.0	0.0	False
466.057	0.0	1Suff PseudoStemNW	14	466057	rinchful	0.0	1.0	False
467.857	0.0	1Suff w/o Lat.	12	467857	modernize	1.0	0.0	False
468.732	0.0	0Suff w/o Lat.	2	468732	moment	1.0	0.0	False
469.541	0.0	0Suff w/o Lat.	2	469541	love	1.0	0.0	False
470.375	0.0	2Suff Composite	23	470375	orientation	1.0	0.0	False
471.55	0.0	2Suff w/o Lat.	22	471550	comparatively	1.0	0.0	False
472.392	0.0	2Suff w/o Lat.	22	472392	rightfully	1.0	0.0	False
473.267	0.0	1Suff RealStemNW	15	473267	continuic	0.0	1.0	False
474.734	0.0	0Suff NW	4	474734	pipson	0.0	1.0	False
475.91	0.0	1Suff w/o Lat.	12	475910	stylist	1.0	0.0	False
476.993	0.0	0Suff NW	4	476993	fortord	0.0	0.0	True
478.861	0.0	1Suff PseudoStemNW	14	478861	londly	0.0	0.0	True
480.661	0.0	2Suff PseudoStemNW	24	480661	booftifully	0.0	1.0	False
482.153	0.0	2Suff RealStemNW	25	482153	ownmental	0.0		False
484.554	0.0	2Suff RealStemNW	25	484554	exceptality	0.0	0.0	True
485.446	0.0	2Suff w/ Lat.	21	485446	explosively	1.0	0.0	False
486.38	0.0	2Suff PseudoStemNW	24	486380	soripsistic	0.0	1.0	False
488.155	0.0	1Suff PseudoStemNW	14	488155	traphetic	0.0	0.0	True
489.18	0.0	2Suff w/o Lat.	22	489180	tactically	1.0	0.0	False
490.181	0.0	2Suff RealStemNW	25	490181	explosfully	0.0	0.0	True
491.073	0.0	2Suff PseudoStemNW	24	491073	movectistic	0.0	1.0	False
492.356	0.0	2Suff PseudoStemNW	24	492356	contitually	0.0	0.0	True
493.357	0.0	2Suff RealStemNW	25	493357	voyeurional	0.0	1.0	False
494.582	0.0	0Suff NW	4	494582	copperce	0.0	1.0	False
495.707	0.0	2Suff RealStemNW	25	495707	selfiveness	0.0	0.0	True
496.649	0.0	2Suff w/ Lat.	21	496649	composition	1.0	0.0	False
497.575	0.0	2Suff w/o Lat.	22	497575	civilization	1.0	0.0	False
498.467	0.0	2Suff Composite	23	498467	classification	1.0	0.0	False
499.317	0.0	2Suff RealStemNW	25	499317	actality	0.0	1.0	False
500.951	0.0	0Suff w/o Lat.	2	500951	vary	1.0	0.0	False
502.451	0.0	2Suff w/o Lat.	22	502451	confidential	1.0	0.0	False
503.393	0.0	0Suff NW	4	503393	lums	0.0	1.0	False
504.802	0.0	1Suff RealStemNW	15	504802	careive	0.0	1.0	False
506.778	0.0	0Suff NW	4	506778	recrern	0.0	1.0	False
508.228	0.0	0Suff w/o Lat.	2	508228	beauty	1.0		False
510.612	0.0	0Suff NW	4	510612	obwert	0.0	1.0	False
511.779	0.0	0Suff w/o Lat.	2	511779	truth	1.0	0.0	False
512.996	0.0	2Suff RealStemNW	25	512996	virtuerize	0.0	1.0	False
515.255	0.0	0Suff w/o Lat.	2	515255	modern	1.0	0.0	False
516.164	0.0	2Suff Composite	23	516164	whimsical	1.0	0.0	False
517.898	0.0	0Suff NW	4	517898	kibs	0.0	1.0	False
519.782	0.0	2Suff RealStemNW	25	519782	brutional	0.0	1.0	False
521.807	0.0	1Suff w/ Lat.	11	521807	objection	1.0	0.0	False
522.666	0.0	1Suff w/o Lat.	12	522666	joyous	1.0	0.0	False
523.499	0.0	0Suff w/o Lat.	2	523499	style	1.0	0.0	False
524.333	0.0	1Suff w/o Lat.	12	524333	tireless	1.0	0.0	False
525.417	0.0	0Suff w/o Lat.	2	525417	person	1.0	0.0	False
526.225	0.0	2Suff w/o Lat.	22	526225	helplessly	1.0	0.0	False
527.134	0.0	0Suff NW	4	527134	eschess	0.0	1.0	False
528.551	0.0	1Suff w/o Lat.	12	528551	lusty	1.0	0.0	False
529.359	0.0	2Suff w/o Lat.	22	529359	luckily	1.0	0.0	False
530.176	0.0	0Suff w/ Lat.	1	530176	provide	1.0	0.0	False
531.052	0.0	2Suff RealStemNW	25	531052	causional	0.0	0.0	True
532.102	0.0	1Suff w/o Lat.	12	532102	creative	1.0	0.0	False
532.944	0.0	1Suff w/ Lat.	11	532944	expression	1.0	0.0	False
533.761	0.0	0Suff w/o Lat.	2	533761	critic	1.0	0.0	False
534.561	0.0	2Suff RealStemNW	25	534561	fooliveness	0.0	0.0	True
535.295	0.0	0Suff w/o Lat.	2	535295	drunk	1.0	0.0	False
536.17	0.0	1Suff RealStemNW	15	536170	justant	0.0	0.0	True
536.912	0.0	2Suff PseudoStemNW	24	536912	mymbolically	0.0	1.0	False
538.304	0.0	2Suff PseudoStemNW	24	538304	cronitionally	0.0	1.0	False
540.421	0.0	2Suff w/o Lat.	22	540421	truthfully	1.0	0.0	False
541.413	0.0	1Suff w/o Lat.	12	541413	wonderful	1.0	0.0	False
542.288	0.0	2Suff PseudoStemNW	24	542288	grearively	0.0		False
544.689	0.0	2Suff PseudoStemNW	24	544689	gunderfully	0.0	0.0	True
545.664	0.0	1Suff w/o Lat.	12	545664	fearful	1.0	0.0	False
546.598	0.0	1Suff RealStemNW	15	546598	civilist	0.0	0.0	True
547.465	0.0	2Suff RealStemNW	25	547465	endiously	0.0	1.0	False
548.79	0.0	0Suff w/o Lat.	2	548790	help	1.0	0.0	False
549.757	0.0	1Suff w/o Lat.	12	549757	computer	1.0	0.0	False
550.824	0.0	1Suff w/o Lat.	12	550824	merciless	1.0	0.0	False
551.65	0.0	1Suff PseudoStemNW	14	551650	coatageous	0.0	1.0	False
553.559	0.0	2Suff RealStemNW	25	553559	opticical	0.0	0.0	True
554.426	0.0	1Suff PseudoStemNW	14	554426	indless	0.0	1.0	False
555.909	0.0	2Suff w/o Lat.	22	555909	causality	1.0	0.0	False
557.593	0.0	0Suff w/o Lat.	2	557593	tactic	1.0	0.0	False
558.568	0.0	0Suff w/o Lat.	2	558568	mercy	1.0	0.0	False
559.435	0.0	2Suff w/o Lat.	22	559435	falsification	1.0	0.0	False
560.436	0.0	2Suff RealStemNW	25	560436	expansishness	0.0	0.0	True
561.386	0.0	1Suff w/o Lat.	12	561386	lovely	1.0	0.0	False
562.286	0.0	1Suff w/o Lat.	12	562286	argument	1.0	0.0	False
563.545	0.0	0Suff w/o Lat.	2	563545	haste	1.0	0.0	False
564.395	0.0	2Suff w/o Lat.	22	564395	nationalist	1.0	0.0	False
565.296	0.0	2Suff RealStemNW	25	565296	dergadfully	0.0		False
567.688	0.0	0Suff w/o Lat.	2	567688	prefer	1.0	0.0	False
568.522	0.0	2Suff PseudoStemNW	24	568522	colliffively	0.0	1.0	False
570.08	0.0	2Suff w/o Lat.	22	570080	personality	1.0	0.0	False
571.439	0.0	2Suff w/o Lat.	22	571439	nationality	1.0	0.0	False
572.473	0.0	1Suff RealStemNW	15	572473	drunkor	0.0	1.0	False
574.057	0.0	2Suff w/o Lat.	22	574057	carefully	1.0	0.0	False
574.823	0.0	2Suff RealStemNW	25	574823	commerceical	0.0	1.0	False
576.482	0.0	2Suff PseudoStemNW	24	576482	utiethation	0.0	1.0	False
577.658	0.0	2Suff RealStemNW	25	577658	careiousness	0.0	1.0	False
579.6	0.0	1Suff w/o Lat.	12	579600	civilize	1.0	0.0	False
580.434	0.0	0Suff w/o Lat.	2	580434	flex	1.0	0.0	False
581.325	0.0	0Suff NW	4	581325	byvre	0.0	1.0	False
582.659	0.0	1Suff w/ Lat.	11	582659	institution	1.0	0.0	False
583.476	0.0	2Suff PseudoStemNW	24	583476	melidification	0.0	1.0	False
584.743	0.0	2Suff w/ Lat.	21	584743	conductivity	1.0	0.0	False
585.56	0.0	0Suff NW	4	585560	herf	0.0	1.0	False
587.069	0.0	1Suff w/o Lat.	12	587069	selfish	1.0	0.0	False
587.869	0.0	1Suff RealStemNW	15	587869	comparatful	0.0	1.0	False
589.303	0.0	2Suff Composite	23	589303	sensation	1.0	0.0	False
590.087	0.0	2Suff RealStemNW	25	590087	clinicical	0.0	0.0	True
591.162	0.0	0Suff w/o Lat.	2	591162	passion	1.0	0.0	False
592.012	0.0	0Suff NW	4	592012	pimer	0.0	1.0	False
593.221	0.0	0Suff NW	4	593221	massien	0.0	0.0	True
594.063	0.0	2Suff PseudoStemNW	24	594063	faicification	0.0	0.0	True
594.963	0.0	0Suff w/o Lat.	2	594963	symbol	1.0	0.0	False
595.788	0.0	0Suff w/o Lat.	2	595788	continue	1.0	0.0	False
596.614	0.0	1Suff PseudoStemNW	14	596614	sothodical	0.0	0.0	True
597.547	0.0	1Suff w/o Lat.	12	597547	methodical	1.0	1.0	True
598.581	0.0	2Suff RealStemNW	25	598581	ordinfully	0.0	1.0	False
600.415	0.0	2Suff w/o Lat.	22	600415	significance	1.0	0.0	False
601.357	0.0	2Suff w/o Lat.	22	601357	carelessly	1.0	0.0	False
602.49	0.0	2Suff w/o Lat.	22	602490	creatively	1.0	0.0	False
635.867	0.0	0Suff NW	4	635867	retend	0.0	0.0	True
637.701	0.0	0Suff w/o Lat.	2	637701	relent	1.0	0.0	False
638.818	0.0	2Suff w/o Lat.	22	638818	relentlessly	1.0	0.0	False
639.868	0.0	0Suff NW	4	639868	slex	0.0	1.0	False
640.994	0.0	2Suff PseudoStemNW	24	640994	selvuality	0.0	1.0	False
642.311	0.0	0Suff w/ Lat.	1	642311	compose	1.0	0.0	False
643.286	0.0	0Suff NW	4	643286	boofty	0.0	0.0	True
644.72	0.0	1Suff w/o Lat.	12	644720	existence	1.0	0.0	False
645.737	0.0	0Suff NW	4	645737	luds	0.0	1.0	False
646.804	0.0	2Suff RealStemNW	25	646804	legalability	0.0	0.0	True
649.055	0.0	2Suff RealStemNW	25	649055	useiously	0.0	1.0	False
650.372	0.0	2Suff PseudoStemNW	24	650372	selvation	0.0		False
652.772	0.0	1Suff w/o Lat.	12	652772	sharpen	1.0	0.0	False
653.939	0.0	2Suff w/ Lat.	21	653939	exclusiveness	1.0	0.0	False
654.99	0.0	1Suff RealStemNW	15	654990	kinden	0.0	1.0	False
657.366	0.0	1Suff w/o Lat.	12	657366	suitable	1.0	0.0	False
658.291	0.0	1Suff PseudoStemNW	14	658291	desterful	0.0	1.0	False
660.183	0.0	2Suff Composite	23	660183	ordination	1.0	0.0	False
661.075	0.0	2Suff RealStemNW	25	661075	sensfulness	0.0	0.0	True
662.525	0.0	1Suff RealStemNW	15	662525	virtance	0.0	1.0	False
664.243	0.0	2Suff w/o Lat.	22	664243	righteousness	1.0	0.0	False
665.11	0.0	0Suff NW	4	665110	loke	0.0	1.0	False
666.452	0.0	0Suff NW	4	666452	atstart	0.0	1.0	False
667.585	0.0	1Suff w/o Lat.	12	667585	commercial	1.0	0.0	False
668.502	0.0	2Suff w/o Lat.	22	668502	attentively	1.0	0.0	False
669.894	0.0	0Suff w/ Lat.	1	669894	perfect	1.0	0.0	False
671.053	0.0	0Suff w/o Lat.	2	671053	assert	1.0	0.0	False
672.037	0.0	2Suff PseudoStemNW	24	672037	pipsonality	0.0	1.0	False
673.437	0.0	1Suff w/o Lat.	12	673437	modernist	1.0	0.0	False
674.329	0.0	2Suff w/o Lat.	22	674329	monumentally	1.0	0.0	False
675.246	0.0	0Suff NW	4	675246	conspode	0.0	1.0	False
676.488	0.0	2Suff Composite	23	676488	synchronization	1.0	0.0	False
677.68	0.0	0Suff w/o Lat.	2	677680	expand	1.0	0.0	False
678.53	0.0	2Suff RealStemNW	25	678530	effortiously	0.0	0.0	True
679.414	0.0	0Suff NW	4	679414	esress	0.0		False
681.823	0.0	1Suff w/o Lat.	12	681823	cultural	1.0	0.0	False
682.965	0.0	2Suff RealStemNW	25	682965	identifilessly	0.0	0.0	True
684.749	0.0	0Suff w/o Lat.	2	684749	master	1.0	0.0	False
685.708	0.0	0Suff NW	4	685708	rebuin	0.0	1.0	False
686.733	0.0	2Suff w/o Lat.	22	686733	uselessly	1.0	0.0	False
687.6	0.0	2Suff w/o Lat.	22	687600	variability	1.0	0.0	False
688.592	0.0	2Suff RealStemNW	25	688592	sensator	0.0	0.0	True
689.359	0.0	1Suff PseudoStemNW	14	689359	selveless	0.0	0.0	True
690.209	0.0	0Suff NW	4	690209	arbub	0.0	1.0	False
691.259	0.0	2Suff PseudoStemNW	24	691259	arpivity	0.0	1.0	False
692.193	0.0	1Suff RealStemNW	15	692193	truthive	0.0	1.0	False
693.577	0.0	2Suff RealStemNW	25	693577	commerceional	0.0	1.0	False
695.019	0.0	1Suff PseudoStemNW	14	695019	hainy	0.0	1.0	False
696.294	0.0	2Suff PseudoStemNW	24	696294	jistification	0.0	1.0	False
698.036	0.0	1Suff RealStemNW	15	698036	stylify	0.0	1.0	False
699.787	0.0	1Suff RealStemNW	15	699787	causic	0.0	0.0	True
701.646	0.0	2Suff PseudoStemNW	24	701646	hettfully	0.0	1.0	False
702.788	0.0	0Suff w/ Lat.	1	702788	excess	1.0	0.0	False
703.68	0.0	0Suff NW	4	703680	cedil	0.0	1.0	False
704.772	0.0	2Suff RealStemNW	25	704772	noisery	0.0	1.0	False
706.314	0.0	2Suff PseudoStemNW	24	706314	fipitation	0.0	1.0	False
707.931	0.0	1Suff PseudoStemNW	14	707931	prosodure	0.0	1.0	False
709.282	0.0	2Suff PseudoStemNW	24	709282	ludsily	0.0	1.0	False
710.757	0.0	0Suff w/o Lat.	2	710757	victim	1.0	0.0	False
711.757	0.0	2Suff w/o Lat.	22	711757	ceaselessly	1.0	0.0	False
712.941	0.0	2Suff w/o Lat.	22	712941	computerize	1.0	0.0	False
714.091	0.0	2Suff PseudoStemNW	24	714091	atstartively	0.0	1.0	False
715.25	0.0	0Suff w/o Lat.	2	715250	cease	1.0	0.0	False
716.242	0.0	2Suff PseudoStemNW	24	716242	eschessionist	0.0	1.0	False
717.826	0.0	2Suff w/o Lat.	22	717826	actively	1.0	0.0	False
718.659	0.0	1Suff PseudoStemNW	14	718659	cutfural	0.0	1.0	False
719.876	0.0	1Suff PseudoStemNW	14	719876	comfernable	0.0	1.0	False
721.694	0.0	1Suff w/o Lat.	12	721694	sensual	1.0	0.0	False
722.727	0.0	1Suff w/o Lat.	12	722727	needless	1.0	0.0	False
723.553	0.0	0Suff w/o Lat.	2	723553	cause	1.0	0.0	False
724.378	0.0	2Suff w/o Lat.	22	724378	suitability	1.0	0.0	False
725.745	0.0	0Suff NW	4	725745	movect	0.0	0.0	True
726.587	0.0	2Suff RealStemNW	25	726587	valufully	0.0	1.0	False
728.337	0.0	2Suff w/o Lat.	22	728337	hastily	1.0	0.0	False
729.304	0.0	2Suff w/o Lat.	22	729304	activist	1.0	0.0	False
730.421	0.0	2Suff Composite	23	730421	nullification	1.0	0.0	False
731.605	0.0	0Suff NW	4	731605	trith	0.0	1.0	False
732.772	0.0	2Suff PseudoStemNW	24	732772	provacional	0.0	0.0	True
733.972	0.0	0Suff w/o Lat.	2	733972	suit	1.0	0.0	False
735.173	0.0	1Suff w/o Lat.	12	735173	cyclic	1.0	0.0	False
736.198	0.0	2Suff RealStemNW	25	736198	nationantly	0.0	0.0	True
737.132	0.0	1Suff PseudoStemNW	14	737132	ewilsence	0.0	1.0	False
738.582	0.0	1Suff RealStemNW	15	738582	fortunion	0.0	1.0	False
740.491	0.0	0Suff NW	4	740491	adnise	0.0	0.0	True
742.633	0.0	2Suff PseudoStemNW	24	742633	herfalist	0.0	1.0	False
744.501	0.0	0Suff NW	4	744501	abadill	0.0	1.0	False
745.718	0.0	1Suff PseudoStemNW	14	745718	lokely	0.0	1.0	False
746.701	0.0	2Suff PseudoStemNW	24	746701	rincheousness	0.0	1.0	False
748.402	0.0	2Suff RealStemNW	25	748402	humanional	0.0	1.0	False
750.369	0.0	0Suff NW	4	750369	tist	0.0	1.0	False
751.703	0.0	2Suff w/o Lat.	22	751703	activate	1.0	0.0	False
752.995	0.0	0Suff NW	4	752995	onnend	0.0	1.0	False
754.095	0.0	1Suff w/o Lat.	12	754095	fertilize	1.0	0.0	False
755.437	0.0	1Suff PseudoStemNW	14	755437	atstartive	0.0	1.0	False
756.671	0.0	0Suff w/o Lat.	2	756671	herb	1.0	0.0	False
757.771	0.0	0Suff w/o Lat.	2	757771	art	1.0	0.0	False
759.455	0.0	0Suff NW	4	759455	nolfs	0.0	1.0	False
760.606	0.0	2Suff w/o Lat.	22	760606	creativity	1.0	0.0	False
761.531	0.0	1Suff RealStemNW	15	761531	purant	0.0	1.0	False
763.04	0.0	0Suff w/o Lat.	2	763040	sign	1.0	0.0	False
764.023	0.0	2Suff w/o Lat.	22	764023	courageously	1.0	0.0	False
765.457	0.0	0Suff w/o Lat.	2	765457	region	1.0	0.0	False
766.282	0.0	0Suff w/o Lat.	2	766282	just	1.0	0.0	False
767.049	0.0	2Suff RealStemNW	25	767049	neediously	0.0	1.0	False
768.716	0.0	1Suff w/o Lat.	12	768716	masterful	1.0	0.0	False
769.967	0.0	0Suff w/o Lat.	2	769967	compare	1.0	0.0	False
771.792	0.0	0Suff NW	4	771792	clade	0.0	1.0	False
773.026	0.0	2Suff PseudoStemNW	24	773026	onwertionable	0.0	1.0	False
774.068	0.0	2Suff w/o Lat.	22	774068	fertilization	1.0	0.0	False
775.21	0.0	2Suff w/o Lat.	22	775210	powerfully	1.0	0.0	False
776.927	0.0	0Suff NW	4	776927	mourd	0.0	1.0	False
778.086	0.0	2Suff w/o Lat.	22	778086	selectivity	1.0	0.0	False
779.086	0.0	0Suff NW	4	779086	gried	0.0	0.0	True
780.187	0.0	1Suff PseudoStemNW	14	780187	shacten	0.0	1.0	False
781.495	0.0	1Suff w/o Lat.	12	781495	senseless	1.0	0.0	False
782.546	0.0	0Suff w/o Lat.	2	782546	nation	1.0	0.0	False
783.696	0.0	2Suff PseudoStemNW	24	783696	comfernably	0.0	1.0	False
784.863	0.0	0Suff NW	4	784863	indolsty	0.0	0.0	True
785.938	0.0	2Suff w/ Lat.	21	785938	exceptional	1.0	0.0	False
884.469	0.0	2Suff PseudoStemNW	24	884469	blunkenness	0.0	0.0	True
884.936	0.0	2Suff RealStemNW	25	884936	prophetionist	0.0	0.0	True
885.919	0.0	0Suff NW	4	885919	jany	0.0	1.0	False
886.811	0.0	1Suff RealStemNW	15	886811	fearive	0.0	1.0	False
887.87	0.0	2Suff w/o Lat.	22	887870	kindliness	1.0	1.0	True
889.179	0.0	1Suff RealStemNW	15	889179	nationic	0.0	0.0	True
890.421	0.0	2Suff RealStemNW	25	890421	breathiously	0.0	1.0	False
891.379	0.0	2Suff w/o Lat.	22	891379	traditionally	1.0	0.0	False
892.471	0.0	2Suff PseudoStemNW	24	892471	mourdfully	0.0	1.0	False
893.638	0.0	1Suff w/o Lat.	12	893638	instinctive	1.0	0.0	False
894.964	0.0	0Suff w/ Lat.	1	894964	object	1.0	0.0	False
895.864	0.0	0Suff w/o Lat.	2	895864	lone	1.0	0.0	False
896.664	0.0	1Suff RealStemNW	15	896664	mournive	0.0	1.0	False
897.848	0.0	2Suff w/o Lat.	22	897848	personally	1.0	0.0	False
898.815	0.0	0Suff w/o Lat.	2	898815	attend	1.0	0.0	False
901.057	0.0	2Suff RealStemNW	25	901057	hastery	0.0	1.0	False
902.358	0.0	2Suff w/o Lat.	22	902358	spiritually	1.0	0.0	False
903.466	0.0	2Suff w/o Lat.	22	903466	loveliness	1.0	0.0	False
904.875	0.0	0Suff NW	4	904875	greard	0.0	1.0	False
905.984	0.0	2Suff RealStemNW	25	905984	momentantly	0.0	1.0	False
907.634	0.0	2Suff RealStemNW	25	907634	farcally	0.0	1.0	False
909.543	0.0	2Suff PseudoStemNW	24	909543	flivituality	0.0	1.0	False
910.593	0.0	2Suff w/o Lat.	22	910593	masterfully	1.0	0.0	False
911.677	0.0	2Suff w/ Lat.	21	911677	expressionist	1.0	0.0	False
912.652	0.0	2Suff w/o Lat.	22	912652	joyously	1.0	0.0	False
913.511	0.0	1Suff w/o Lat.	12	913511	momentary	1.0	0.0	False
914.37	0.0	2Suff w/o Lat.	22	914370	spiritualism	1.0	0.0	False
915.253	0.0	2Suff Composite	23	915253	vulgarization	1.0	0.0	False
916.487	0.0	2Suff PseudoStemNW	24	916487	procation	0.0	0.0	True
917.479	0.0	0Suff NW	4	917479	coatage	0.0	0.0	True
918.746	0.0	0Suff w/o Lat.	2	918746	legal	1.0	0.0	False
919.646	0.0	1Suff RealStemNW	15	919646	creatful	0.0	1.0	False
921.513	0.0	2Suff w/o Lat.	22	921513	argumentative	1.0	0.0	False
922.772	0.0	0Suff NW	4	922772	moolure	0.0	1.0	False
923.823	0.0	1Suff PseudoStemNW	14	923823	janiable	0.0	1.0	False
925.515	0.0	2Suff PseudoStemNW	24	925515	byvrical	0.0	0.0	True
926.723	0.0	1Suff w/o Lat.	12	926723	selective	1.0	0.0	False
927.624	0.0	1Suff w/ Lat.	11	927624	composite	1.0	0.0	False
928.491	0.0	2Suff w/o Lat.	22	928491	brokerage	1.0	0.0	False
929.974	0.0	1Suff PseudoStemNW	14	929974	precukable	0.0	1.0	False
931.383	0.0	2Suff w/o Lat.	22	931383	dreadfully	1.0	0.0	False
932.859	0.0	0Suff NW	4	932859	vetcine	0.0	1.0	False
934.101	0.0	2Suff w/o Lat.	22	934101	classical	1.0	0.0	False
935.126	0.0	1Suff w/o Lat.	12	935126	herbal	1.0	0.0	False
936.001	0.0	2Suff w/o Lat.	22	936001	selflessness	1.0	0.0	False
936.943	0.0	2Suff w/o Lat.	22	936943	optically	1.0	0.0	False
937.827	0.0	1Suff w/o Lat.	12	937827	noticeable	1.0	0.0	False
938.777	0.0	2Suff RealStemNW	25	938777	flexfulness	0.0	0.0	True
940.086	0.0	1Suff w/ Lat.	11	940086	explosive	1.0	0.0	False
940.936	0.0	2Suff Composite	23	940936	purification	1.0	0.0	False
941.811	0.0	1Suff w/o Lat.	12	941811	falsify	1.0	0.0	False
942.728	0.0	1Suff w/o Lat.	12	942728	artist	1.0	0.0	False
943.57	0.0	1Suff w/o Lat.	12	943570	helpless	1.0	0.0	False
944.387	0.0	1Suff PseudoStemNW	14	944387	awnist	0.0	0.0	True
945.221	0.0	2Suff RealStemNW	25	945221	brutantly	0.0	0.0	True
946.154	0.0	0Suff w/o Lat.	2	946154	excel	1.0	0.0	False
947.388	0.0	0Suff NW	4	947388	faice	0.0	1.0	False
948.455	0.0	2Suff PseudoStemNW	24	948455	perfallionist	0.0	1.0	False
949.564	0.0	0Suff w/o Lat.	2	949564	compute	1.0	0.0	False
950.514	0.0	0Suff NW	4	950514	franic	0.0	1.0	False
952.365	0.0	1Suff w/o Lat.	12	952365	personal	1.0	0.0	False
953.282	0.0	1Suff w/o Lat.	12	953282	measurable	1.0	0.0	False
954.407	0.0	0Suff NW	4	954407	flivit	0.0	1.0	False
955.516	0.0	0Suff NW	4	955516	jok	0.0	1.0	False
956.899	0.0	1Suff PseudoStemNW	14	956899	obwertion	0.0	1.0	False
957.975	0.0	2Suff w/o Lat.	22	957975	sensibility	1.0	0.0	False
959.167	0.0	2Suff RealStemNW	25	959167	hierarchally	0.0	0.0	True
960.225	0.0	0Suff w/o Lat.	2	960225	culture	1.0	0.0	False
960.959	0.0	2Suff RealStemNW	25	960959	heroliness	0.0	1.0	False
962.584	0.0	1Suff w/o Lat.	12	962584	collective	1.0	0.0	False
963.626	0.0	0Suff NW	4	963626	ceant	0.0	1.0	False
964.727	0.0	2Suff RealStemNW	25	964727	creatously	0.0	1.0	False
966.419	0.0	2Suff PseudoStemNW	24	966419	lurtilizer	0.0	0.0	True
967.469	0.0	2Suff Composite	23	967469	identical	1.0	0.0	False
968.478	0.0	0Suff w/o Lat.	2	968478	greed	1.0	0.0	False
969.52	0.0	0Suff w/ Lat.	1	969520	inspire	1.0	0.0	False
970.37	0.0	2Suff w/o Lat.	22	970370	continually	1.0	0.0	False
971.254	0.0	0Suff NW	4	971254	exfapt	0.0	1.0	False
972.354	0.0	0Suff w/o Lat.	2	972354	fear	1.0	0.0	False
973.396	0.0	2Suff PseudoStemNW	24	973396	cankfully	0.0	1.0	False
974.563	0.0	1Suff RealStemNW	15	974563	victimist	0.0	0.0	True
975.497	0.0	2Suff w/o Lat.	22	975497	momentarily	1.0	0.0	False
976.414	0.0	2Suff PseudoStemNW	24	976414	trithfulness	0.0	1.0	False
977.697	0.0	2Suff PseudoStemNW	24	977697	foffification	0.0	1.0	False
978.856	0.0	2Suff w/o Lat.	22	978856	stylistic	1.0	0.0	False
979.831	0.0	0Suff NW	4	979831	comfern	0.0	1.0	False
980.873	0.0	2Suff PseudoStemNW	24	980873	murpilessly	0.0	1.0	False
982.124	0.0	2Suff RealStemNW	25	982124	artional	0.0	1.0	False
983.291	0.0	2Suff w/o Lat.	22	983291	usefulness	1.0	0.0	False
984.274	0.0	0Suff NW	4	984274	lond	0.0	1.0	False
985.308	0.0	2Suff PseudoStemNW	24	985308	massienately	0.0	1.0	False
986.342	0.0	2Suff w/o Lat.	22	986342	fortunately	1.0	0.0	False
987.25	0.0	0Suff w/o Lat.	2	987250	need	1.0	0.0	False
988.184	0.0	1Suff PseudoStemNW	14	988184	rebuinal	0.0	1.0	False
989.234	0.0	0Suff NW	4	989234	mympol	0.0	1.0	False
990.443	0.0	1Suff w/o Lat.	12	990443	flexible	1.0	0.0	False
991.443	0.0	0Suff NW	4	991443	hett	0.0	1.0	False
992.477	0.0	0Suff w/o Lat.	2	992477	joy	1.0	0.0	False
993.369	0.0	1Suff PseudoStemNW	14	993369	orner	0.0	1.0	False
994.486	0.0	2Suff w/o Lat.	22	994486	assertiveness	1.0	0.0	False
995.57	0.0	2Suff w/o Lat.	22	995570	respectively	1.0	0.0	False
996.445	0.0	1Suff PseudoStemNW	14	996445	exfallent	0.0	1.0	False
997.612	0.0	2Suff w/o Lat.	22	997612	collectively	1.0	0.0	False
998.454	0.0	1Suff PseudoStemNW	14	998454	simnify	0.0	1.0	False
999.562	0.0	2Suff PseudoStemNW	24	999562	navounality	0.0	1.0	False
1000.663	0.0	2Suff w/o Lat.	22	1000663	joyfully	1.0	0.0	False
1001.621	0.0	1Suff RealStemNW	15	1001621	fruitable	0.0	0.0	True
1002.855	0.0	1Suff w/o Lat.	12	1002855	clinical	1.0	0.0	False
1003.714	0.0	0Suff w/o Lat.	2	1003714	tire	1.0	0.0	False
1004.531	0.0	1Suff RealStemNW	15	1004531	selectful	0.0	0.0	True
1005.356	0.0	0Suff w/o Lat.	2	1005356	self	1.0	0.0	False
1006.156	0.0	2Suff RealStemNW	25	1006156	embarkfully	0.0	1.0	False
1007.156	0.0	0Suff NW	4	1007156	conwode	0.0	1.0	False
1008.19	0.0	1Suff PseudoStemNW	14	1008190	lumsy	0.0	1.0	False
1010.124	0.0	1Suff w/o Lat.	12	1010124	endless	1.0	0.0	False
1011.416	0.0	2Suff PseudoStemNW	24	1011416	prosodural	0.0	1.0	False
1012.592	0.0	1Suff PseudoStemNW	14	1012592	esressive	0.0	1.0	False
1013.834	0.0	1Suff w/o Lat.	12	1013834	righteous	1.0	0.0	False
1014.709	0.0	1Suff PseudoStemNW	14	1014709	herfal	0.0	1.0	False
1091.799	0.0	2Suff w/o Lat.	22	1091799	needlessly	1.0	0.0	False
1092.825	0.0	0Suff w/o Lat.	2	1092825	respect	1.0	0.0	False
1093.691	0.0	1Suff PseudoStemNW	14	1093691	gunderful	0.0	1.0	False
1094.925	0.0	1Suff PseudoStemNW	14	1094925	darberous	0.0	1.0	False
1096.009	0.0	1Suff PseudoStemNW	14	1096009	eschession	0.0	1.0	False
1096.909	0.0	0Suff NW	4	1096909	cuppom	0.0	1.0	False
1098.018	0.0	0Suff NW	4	1098018	combere	0.0	1.0	False
1099.335	0.0	2Suff PseudoStemNW	24	1099335	canklessly	0.0	1.0	False
1100.46	0.0	2Suff RealStemNW	25	1100460	assertishness	0.0	1.0	False
1101.477	0.0	2Suff PseudoStemNW	24	1101477	healtily	0.0	1.0	False
1102.528	0.0	2Suff Composite	23	1102528	solidification	1.0	0.0	False
1104.17	0.0	2Suff RealStemNW	25	1104170	noticeator	0.0	1.0	False
1105.487	0.0	1Suff w/o Lat.	12	1105487	comparative	1.0	0.0	False
1106.379	0.0	0Suff w/o Lat.	2	1106379	brute	1.0	0.0	False
1107.429	0.0	1Suff PseudoStemNW	14	1107429	mocondary	0.0	1.0	False
1108.521	0.0	2Suff w/o Lat.	22	1108521	sensuality	1.0	0.0	False
1109.446	0.0	2Suff RealStemNW	25	1109446	signiousness	0.0	0.0	True
1110.572	0.0	0Suff NW	4	1110572	sarument	0.0	1.0	False
1111.964	0.0	2Suff w/o Lat.	22	1111964	variously	1.0	0.0	False
1113.272	0.0	2Suff PseudoStemNW	24	1113272	jistifiable	0.0	1.0	False
1114.631	0.0	0Suff w/o Lat.	2	1114631	confide	1.0	0.0	False
1116.015	0.0	1Suff RealStemNW	15	1116015	tacticic	0.0	0.0	True
1117.215	0.0	2Suff w/o Lat.	22	1117215	ownership	1.0	0.0	False
1118.349	0.0	1Suff w/o Lat.	12	1118349	victimize	1.0	0.0	False
1119.266	0.0	2Suff w/o Lat.	22	1119266	abolitionist	1.0	0.0	False
1120.233	0.0	0Suff NW	4	1120233	colliff	0.0	1.0	False
1121.5	0.0	0Suff NW	4	1121500	meleft	0.0	1.0	False
1123.042	0.0	0Suff NW	4	1123042	carsh	0.0	1.0	False
1124.109	0.0	2Suff PseudoStemNW	24	1124109	cladsification	0.0	1.0	False
1125.276	0.0	1Suff w/o Lat.	12	1125276	mournful	1.0	0.0	False
1126.418	0.0	0Suff w/o Lat.	2	1126418	optic	1.0	0.0	False
1127.352	0.0	1Suff PseudoStemNW	14	1127352	healty	0.0	1.0	False
1128.394	0.0	1Suff w/o Lat.	12	1128394	comical	1.0	0.0	False
1129.377	0.0	2Suff Composite	23	1129377	allegorical	1.0	1.0	True
1130.444	0.0	1Suff w/o Lat.	12	1130444	active	1.0	0.0	False
1131.553	0.0	2Suff w/o Lat.	22	1131553	commercialize	1.0	0.0	False
1132.645	0.0	0Suff w/o Lat.	2	1132645	clinic	1.0	0.0	False
1133.537	0.0	0Suff NW	4	1133537	sedule	0.0	0.0	True
1134.804	0.0	0Suff NW	4	1134804	awn	0.0	0.0	True
1135.813	0.0	0Suff w/ Lat.	1	1135813	intend	1.0	0.0	False
1137.33	0.0	2Suff w/o Lat.	22	1137330	selfishness	1.0	0.0	False
1138.43	0.0	2Suff w/o Lat.	22	1138430	prophetically	1.0	0.0	False
1139.531	0.0	0Suff w/o Lat.	2	1139531	own	1.0	0.0	False
1140.423	0.0	1Suff RealStemNW	15	1140423	magicic	0.0	1.0	False
1141.848	0.0	2Suff Composite	23	1141848	altercation	1.0	1.0	True
1143.24	0.0	2Suff RealStemNW	25	1143240	presumator	0.0	1.0	False
1144.649	0.0	1Suff w/o Lat.	12	1144649	monumental	1.0	0.0	False
1145.607	0.0	0Suff w/o Lat.	2	1145607	vaccine	1.0	0.0	False
1146.499	0.0	0Suff w/o Lat.	2	1146499	custom	1.0	0.0	False
1147.516	0.0	1Suff w/o Lat.	12	1147516	fruitless	1.0	1.0	True
1148.842	0.0	1Suff PseudoStemNW	14	1148842	broler	0.0	1.0	False
1150.025	0.0	2Suff RealStemNW	25	1150025	industriantly	0.0	0.0	True
1151.084	0.0	1Suff RealStemNW	15	1151084	perfectate	0.0	0.0	True
1152.151	0.0	2Suff w/o Lat.	22	1152151	truthfulness	1.0	0.0	False
1153.301	0.0	1Suff RealStemNW	15	1153301	industryic	0.0	1.0	False
1154.493	0.0	0Suff NW	4	1154493	seet	0.0	1.0	False
1155.811	0.0	2Suff w/o Lat.	22	1155811	effortlessly	1.0		False
1158.22	0.0	2Suff w/o Lat.	22	1158220	instinctively	1.0	0.0	False
1159.553	0.0	0Suff w/ Lat.	1	1159553	exclude	1.0	0.0	False
1160.587	0.0	0Suff NW	4	1160587	perfall	0.0	1.0	False
1161.846	0.0	2Suff RealStemNW	25	1161846	penalilessly	0.0	1.0	False
1163.396	0.0	2Suff w/o Lat.	22	1163396	clinically	1.0	0.0	False
1164.255	0.0	2Suff w/ Lat.	21	1164255	intentional	1.0	0.0	False
1165.163	0.0	2Suff PseudoStemNW	24	1165163	paragewical	0.0	1.0	False
1166.314	0.0	2Suff w/o Lat.	22	1166314	regionally	1.0	1.0	True
1167.698	0.0	1Suff PseudoStemNW	14	1167698	brealtless	0.0	1.0	False
1169.123	0.0	1Suff w/o Lat.	12	1169123	national	1.0	0.0	False
1170.015	0.0	0Suff w/o Lat.	2	1170015	sharp	1.0	0.0	False
1170.882	0.0	0Suff NW	4	1170882	selve	0.0		False
1173.274	0.0	2Suff w/o Lat.	22	1173274	foolishly	1.0	0.0	False
1174.483	0.0	1Suff RealStemNW	15	1174483	falsant	0.0		False
1176.867	0.0	0Suff w/o Lat.	2	1176867	dread	1.0	0.0	False
1177.909	0.0	2Suff w/o Lat.	22	1177909	flexibility	1.0		False
1180.31	0.0	0Suff NW	4	1180310	creric	0.0	0.0	True
1181.435	0.0	1Suff w/o Lat.	12	1181435	industrial	1.0	0.0	False
1182.602	0.0	2Suff PseudoStemNW	24	1182602	tistlessly	0.0	0.0	True
1184.203	0.0	1Suff w/o Lat.	12	1184203	fortunate	1.0	0.0	False
1185.045	0.0	0Suff NW	4	1185045	pums	0.0	1.0	False
1186.253	0.0	0Suff w/o Lat.	2	1186253	abolish	1.0	0.0	False
1187.129	0.0	0Suff w/o Lat.	2	1187129	civil	1.0	0.0	False
1188.004	0.0	2Suff w/o Lat.	22	1188004	modulation	1.0	0.0	False
1188.896	0.0	2Suff PseudoStemNW	24	1188896	perfallionism	0.0	1.0	False
1191.18	0.0	0Suff w/o Lat.	2	1191180	admire	1.0	0.0	False
1192.272	0.0	2Suff w/o Lat.	22	1192272	measurably	1.0	0.0	False
1193.347	0.0	2Suff RealStemNW	25	1193347	magicical	0.0	0.0	True
1194.172	0.0	1Suff PseudoStemNW	14	1194172	jokous	0.0	1.0	False
1195.765	0.0	0Suff NW	4	1195765	healt	0.0	1.0	False
1196.923	0.0	2Suff w/o Lat.	22	1196923	activity	1.0	0.0	False
1198.14	0.0	1Suff RealStemNW	15	1198140	selfory	0.0	1.0	False
1199.166	0.0	1Suff w/o Lat.	12	1199166	tactical	1.0	0.0	False
1200.266	0.0	1Suff w/o Lat.	12	1200266	purify	1.0	0.0	False
1201.416	0.0	0Suff w/o Lat.	2	1201416	commerce	1.0	0.0	False
1202.292	0.0	1Suff RealStemNW	15	1202292	classal	0.0	0.0	True
1203.192	0.0	2Suff w/o Lat.	22	1203192	expansiveness	1.0	0.0	False
1204.284	0.0	1Suff w/o Lat.	12	1204284	expansive	1.0	0.0	False
1205.192	0.0	2Suff w/ Lat.	21	1205192	excessively	1.0	0.0	False
1206.259	0.0	2Suff Composite	23	1206259	fortification	1.0	0.0	False
1207.268	0.0	0Suff w/ Lat.	1	1207268	institute	1.0	0.0	False
1208.11	0.0	1Suff PseudoStemNW	14	1208110	seetable	0.0	0.0	True
1209.277	0.0	2Suff PseudoStemNW	24	1209277	comborition	0.0	1.0	False
1211.236	0.0	1Suff PseudoStemNW	14	1211236	recrernive	0.0	1.0	False
1212.978	0.0	1Suff w/ Lat.	11	1212978	exclusive	1.0	0.0	False
1214.062	0.0	2Suff RealStemNW	25	1214062	foolality	0.0	1.0	False
1216.237	0.0	2Suff w/ Lat.	21	1216237	effectively	1.0	0.0	False
1217.363	0.0	1Suff w/ Lat.	11	1217363	exception	1.0	0.0	False
1218.413	0.0	1Suff w/o Lat.	12	1218413	passionate	1.0	0.0	False
1219.73	0.0	0Suff NW	4	1219730	brole	0.0	1.0	False
1220.889	0.0	1Suff w/o Lat.	12	1220889	dreadful	1.0	0.0	False
1221.956	0.0	1Suff w/o Lat.	12	1221956	vaccinate	1.0	0.0	False
1222.923	0.0	0Suff w/o Lat.	2	1222923	breath	1.0	0.0	False
1223.715	0.0	1Suff w/o Lat.	12	1223715	dangerous	1.0	0.0	False
1224.648	0.0	2Suff w/o Lat.	22	1224648	passionately	1.0	0.0	False
1225.49	0.0	2Suff w/o Lat.	22	1225490	brutality	1.0	0.0	False
1226.307	0.0	2Suff RealStemNW	25	1226307	loneionist	0.0	1.0	False
1227.833	0.0	2Suff w/o Lat.	22	1227833	preferably	1.0	0.0	False
1228.666	0.0	0Suff NW	4	1228666	exfal	0.0	1.0	False
1229.775	0.0	2Suff w/o Lat.	22	1229775	loneliness	1.0	0.0	False
1230.642	0.0	2Suff PseudoStemNW	24	1230642	flivitually	0.0	1.0	False
1231.917	0.0	2Suff RealStemNW	25	1231917	identally	0.0	1.0	False
1310.125	0.0	0Suff NW	4	1310125	inglinite	0.0	1.0	False
1311.258	0.0	1Suff w/o Lat.	12	1311258	continuous	1.0	0.0	False
1312.275	0.0	1Suff w/o Lat.	12	1312275	sensible	1.0	0.0	False
1313.209	0.0	1Suff PseudoStemNW	14	1313209	crerical	0.0	1.0	False
1314.259	0.0	0Suff w/o Lat.	2	1314259	industry	1.0	1.0	True
1315.61	0.0	1Suff RealStemNW	15	1315610	selfable	0.0	1.0	False
1317.244	0.0	2Suff w/ Lat.	21	1317244	exclusively	1.0	0.0	False
1318.327	0.0	1Suff PseudoStemNW	14	1318327	indlidstive	0.0	1.0	False
1319.361	0.0	2Suff RealStemNW	25	1319361	tacticical	0.0	0.0	True
1321.303	0.0	1Suff PseudoStemNW	14	1321303	griedy	0.0	1.0	False
1322.879	0.0	1Suff PseudoStemNW	14	1322879	obwertive	0.0	1.0	False
1323.846	0.0	2Suff w/o Lat.	22	1323846	suitably	1.0	0.0	False
1324.921	0.0	2Suff RealStemNW	25	1324921	brokiness	0.0	1.0	False
1326.163	0.0	2Suff RealStemNW	25	1326163	expressmental	0.0	1.0	False
1327.647	0.0	0Suff NW	4	1327647	ewils	0.0	1.0	False
1328.847	0.0	2Suff w/o Lat.	22	1328847	selectively	1.0	0.0	False
1329.831	0.0	0Suff w/o Lat.	2	1329831	fever	1.0	0.0	False
1330.723	0.0	0Suff w/o Lat.	2	1330723	noise	1.0	0.0	False
1331.631	0.0	1Suff w/o Lat.	12	1331631	comfortable	1.0	0.0	False
1332.632	0.0	2Suff RealStemNW	25	1332632	classally	0.0	1.0	False
1333.849	0.0	0Suff w/o Lat.	2	1333849	pure	1.0	0.0	False
1334.766	0.0	0Suff NW	4	1334766	vectue	0.0	1.0	False
1335.866	0.0	0Suff NW	4	1335866	navoun	0.0	1.0	False
1336.933	0.0	2Suff w/o Lat.	22	1336933	mercilessly	1.0	0.0	False
1338.275	0.0	1Suff w/ Lat.	11	1338275	intention	1.0	0.0	False
1339.2	0.0	2Suff RealStemNW	25	1339200	nullifilessly	0.0	1.0	False
1340.859	0.0	0Suff NW	4	1340859	pacic	0.0	1.0	False
1342.226	0.0	1Suff w/o Lat.	12	1342226	customary	1.0	0.0	False
1343.56	0.0	2Suff w/o Lat.	22	1343560	critically	1.0	0.0	False
1344.427	0.0	1Suff w/ Lat.	11	1344427	provision	1.0	0.0	False
1345.319	0.0	2Suff Composite	23	1345319	embarkation	1.0	1.0	True
1346.344	0.0	2Suff w/o Lat.	22	1346344	tirelessly	1.0	0.0	False
1347.536	0.0	0Suff NW	4	1347536	cronition	0.0	1.0	False
1349.245	0.0	1Suff RealStemNW	15	1349245	powerive	0.0	0.0	True
1350.22	0.0	0Suff w/o Lat.	2	1350220	measure	1.0	0.0	False
1351.171	0.0	1Suff w/o Lat.	12	1351171	attentive	1.0	0.0	False
1352.071	0.0	0Suff NW	4	1352071	hunen	0.0	1.0	False
1353.588	0.0	1Suff RealStemNW	15	1353588	confidious	0.0	1.0	False
1355.514	0.0	2Suff RealStemNW	25	1355514	purifilessly	0.0	1.0	False
1357.664	0.0	2Suff PseudoStemNW	24	1357664	comberatively	0.0		False
1360.065	0.0	0Suff NW	4	1360065	effern	0.0	0.0	True
1360.974	0.0	0Suff w/o Lat.	2	1360974	fruit	1.0	0.0	False
1361.857	0.0	0Suff w/o Lat.	2	1361857	end	1.0	0.0	False
1362.691	0.0	2Suff Composite	23	1362691	probation	1.0	0.0	False
1363.775	0.0	2Suff PseudoStemNW	24	1363775	kibsliness	0.0	1.0	False
1364.992	0.0	2Suff w/o Lat.	22	1364992	lustily	1.0	0.0	False
1366.042	0.0	0Suff NW	4	1366042	blead	0.0	0.0	True
1367.101	0.0	2Suff w/o Lat.	22	1367101	procedural	1.0	0.0	False
1367.993	0.0	1Suff w/o Lat.	12	1367993	drunken	1.0	0.0	False
1368.818	0.0	1Suff PseudoStemNW	14	1368818	bleadful	0.0	1.0	False
1370.018	0.0	0Suff NW	4	1370018	lurtile	0.0	1.0	False
1371.569	0.0	2Suff Composite	23	1371569	degradation	1.0	0.0	False
1372.544	0.0	0Suff NW	4	1372544	cutfure	0.0	1.0	False
1374.428	0.0	2Suff RealStemNW	25	1374428	variality	0.0	0.0	True
1375.478	0.0	1Suff w/ Lat.	11	1375478	objective	1.0	0.0	False
1376.403	0.0	2Suff Composite	23	1376403	annexation	1.0	0.0	False
1377.579	0.0	0Suff w/o Lat.	2	1377579	courage	1.0	0.0	False
1378.404	0.0	2Suff w/ Lat.	21	1378404	perfectionism	1.0	0.0	False
1379.471	0.0	2Suff PseudoStemNW	24	1379471	cheherably	0.0	1.0	False
1381.197	0.0	2Suff w/o Lat.	22	1381197	admirably	1.0	0.0	False
1382.047	0.0	2Suff w/o Lat.	22	1382047	commercially	1.0	0.0	False
1383.022	0.0	1Suff PseudoStemNW	14	1383022	onnention	0.0	0.0	True
1383.864	0.0	1Suff w/o Lat.	12	1383864	respective	1.0	0.0	False
1384.848	0.0	1Suff RealStemNW	15	1384848	monumentic	0.0	0.0	True
1386.84	0.0	2Suff RealStemNW	25	1386840	senseiously	0.0	0.0	True
1389.016	0.0	2Suff w/o Lat.	22	1389016	spirituality	1.0	0.0	False
1390.041	0.0	0Suff NW	4	1390041	coyim	0.0	1.0	False
1391.233	0.0	0Suff NW	4	1391233	rinch	0.0	1.0	False
1392.533	0.0	2Suff PseudoStemNW	24	1392533	moolurably	0.0	0.0	True
1393.592	0.0	1Suff w/o Lat.	12	1393592	assertive	1.0	0.0	False
1394.717	0.0	0Suff NW	4	1394717	mocond	0.0	1.0	False
1396.109	0.0	0Suff w/o Lat.	2	1396109	notice	1.0	0.0	False
1397.151	0.0	2Suff RealStemNW	25	1397151	fertilability	0.0	0.0	True
1399.035	0.0	0Suff NW	4	1399035	connurt	0.0	1.0	False
1400.236	0.0	1Suff w/o Lat.	12	1400236	courageous	1.0	0.0	False
1401.144	0.0	2Suff w/o Lat.	22	1401144	personalize	1.0	0.0	False
1402.161	0.0	1Suff RealStemNW	15	1402161	fertilist	0.0	0.0	True
1403.087	0.0	1Suff w/o Lat.	12	1403087	magical	1.0	0.0	False
1404.054	0.0	1Suff PseudoStemNW	14	1404054	comburer	0.0	1.0	False
1405.179	0.0	1Suff w/o Lat.	12	1405179	spiritual	1.0	0.0	False
1406.396	0.0	2Suff RealStemNW	25	1406396	feverality	0.0	0.0	True
1408.005	0.0	1Suff RealStemNW	15	1408005	conclusful	0.0	1.0	False
1409.439	0.0	0Suff w/o Lat.	2	1409439	collect	1.0	0.0	False
1410.397	0.0	0Suff NW	4	1410397	selp	0.0	0.0	True
1411.306	0.0	2Suff PseudoStemNW	24	1411306	efforniveness	0.0	1.0	False
1413.14	0.0	0Suff NW	4	1413140	provace	0.0	1.0	False
1414.557	0.0	2Suff RealStemNW	25	1414557	victimilessly	0.0	1.0	False
1416.591	0.0	2Suff w/o Lat.	22	1416591	commercialism	1.0	0.0	False
1418.308	0.0	2Suff w/ Lat.	21	1418308	conclusively	1.0	0.0	False
1419.35	0.0	2Suff w/o Lat.	22	1419350	nationally	1.0	0.0	False
1420.192	0.0	0Suff w/o Lat.	2	1420192	fool	1.0	0.0	False
1421.0	0.0	0Suff NW	4	1421000	orn	0.0	1.0	False
1422.418	0.0	2Suff w/o Lat.	22	1422418	feverishly	1.0	0.0	False
1424.101	0.0	1Suff w/o Lat.	12	1424101	attractive	1.0	0.0	False
1425.052	0.0	1Suff w/o Lat.	12	1425052	excellent	1.0	0.0	False
1425.902	0.0	1Suff RealStemNW	15	1425902	tireable	0.0	0.0	True
1426.819	0.0	0Suff w/o Lat.	2	1426819	proceed	1.0	0.0	False
1427.636	0.0	2Suff PseudoStemNW	24	1427636	darberously	0.0	1.0	False
1428.861	0.0	1Suff w/o Lat.	12	1428861	regional	1.0	0.0	False
1430.012	0.0	0Suff NW	4	1430012	jist	0.0	1.0	False
1431.612	0.0	1Suff w/o Lat.	12	1431612	abolition	1.0	0.0	False
1432.479	0.0	0Suff w/o Lat.	2	1432479	instinct	1.0	0.0	False
1433.404	0.0	0Suff NW	4	1433404	darber	0.0	1.0	False
1435.43	0.0	2Suff PseudoStemNW	24	1435430	excrodively	0.0	1.0	False
1436.972	0.0	2Suff w/o Lat.	22	1436972	dangerously	1.0	0.0	False
1437.922	0.0	2Suff w/o Lat.	22	1437922	carelessness	1.0	0.0	False
1439.048	0.0	1Suff w/o Lat.	12	1439048	lucky	1.0	0.0	False
1439.948	0.0	2Suff RealStemNW	25	1439948	criticical	0.0	0.0	True
1440.823	0.0	0Suff w/o Lat.	2	1440823	magic	1.0		False
1443.224	0.0	1Suff w/o Lat.	12	1443224	hearty	1.0	0.0	False
1444.374	0.0	1Suff PseudoStemNW	14	1444374	ludsy	0.0	1.0	False
1445.558	0.0	0Suff w/o Lat.	2	1445558	broke	1.0	0.0	False
1446.458	0.0	2Suff w/o Lat.	22	1446458	artistic	1.0	0.0	False
1447.359	0.0	2Suff RealStemNW	25	1447359	couragliness	0.0	1.0	False
1448.842	0.0	2Suff PseudoStemNW	24	1448842	shactener	0.0	0.0	True
1450.543	0.0	0Suff NW	4	1450543	cheher	0.0	1.0	False
1451.868	0.0	0Suff w/o Lat.	2	1451868	class	1.0	0.0	False
1453.019	0.0	1Suff w/ Lat.	11	1453019	conclusive	1.0	0.0	False
1453.961	0.0	0Suff NW	4	1453961	gunder	0.0	0.0	True
1526.049	0.0	0Suff NW	4	1526049	lecer	0.0	1.0	False
1527.4	0.0	2Suff RealStemNW	25	1527400	actional	0.0	1.0	False
1528.767	0.0	1Suff PseudoStemNW	14	1528767	flivitual	0.0	1.0	False
1529.884	0.0	2Suff w/ Lat.	21	1529884	institutional	1.0	0.0	False
1530.851	0.0	2Suff PseudoStemNW	24	1530851	patudation	0.0	0.0	True
1532.893	0.0	0Suff NW	4	1532893	spip	0.0	1.0	False
1534.027	0.0	2Suff PseudoStemNW	24	1534027	arbumentative	0.0	1.0	False
1535.127	0.0	0Suff w/o Lat.	2	1535127	sense	1.0	0.0	False
1536.036	0.0	0Suff w/o Lat.	2	1536036	method	1.0	0.0	False
1537.019	0.0	2Suff PseudoStemNW	24	1537019	sothodically	0.0	1.0	False
1538.42	0.0	1Suff PseudoStemNW	14	1538420	brukal	0.0	1.0	False
1539.487	0.0	0Suff NW	4	1539487	combure	0.0	1.0	False
1540.596	0.0	2Suff Composite	23	1540596	valuation	1.0	0.0	False
1541.821	0.0	0Suff NW	4	1541821	tablic	0.0	1.0	False
1542.971	0.0	2Suff PseudoStemNW	24	1542971	connurtivity	0.0	1.0	False
1544.105	0.0	2Suff PseudoStemNW	24	1544105	coyimally	0.0	1.0	False
1545.205	0.0	2Suff RealStemNW	25	1545205	intentality	0.0	1.0	False
1546.906	0.0	2Suff Composite	23	1546906	identification	1.0	0.0	False
1548.015	0.0	1Suff RealStemNW	15	1548015	variment	0.0	1.0	False
1549.065	0.0	2Suff PseudoStemNW	24	1549065	flivitualize	0.0	1.0	False
1550.207	0.0	2Suff RealStemNW	25	1550207	lustery	0.0	1.0	False
1551.866	0.0	0Suff NW	4	1551866	simn	0.0	1.0	False
1552.983	0.0	0Suff NW	4	1552983	blunk	0.0	0.0	True
1554.442	0.0	2Suff PseudoStemNW	24	1554442	foptration	0.0	1.0	False
1555.475	0.0	1Suff PseudoStemNW	14	1555475	omlical	0.0	1.0	False
1556.542	0.0	0Suff NW	4	1556542	sothod	0.0	1.0	False
1557.876	0.0	0Suff w/o Lat.	2	1557876	FALSE	1.0	0.0	False
1558.876	0.0	2Suff w/o Lat.	22	1558876	attractively	1.0	0.0	False
1559.843	0.0	2Suff RealStemNW	25	1559843	masterively	0.0	1.0	False
1561.469	0.0	1Suff RealStemNW	15	1561469	helpive	0.0	1.0	False
1562.536	0.0	2Suff PseudoStemNW	24	1562536	griedily	0.0	1.0	False
1563.644	0.0	1Suff PseudoStemNW	14	1563644	cuppomary	0.0	1.0	False
1564.811	0.0	0Suff NW	4	1564811	brealt	0.0	1.0	False
1565.878	0.0	1Suff w/o Lat.	12	1565878	traditional	1.0	0.0	False
1566.929	0.0	2Suff w/o Lat.	22	1566929	herbalist	1.0	0.0	False
1568.021	0.0	0Suff w/o Lat.	2	1568021	attract	1.0	0.0	False
1568.896	0.0	1Suff PseudoStemNW	14	1568896	selvible	0.0	1.0	False
1570.046	0.0	2Suff PseudoStemNW	24	1570046	jokfully	0.0	1.0	False
1571.18	0.0	2Suff w/ Lat.	21	1571180	presumably	1.0	0.0	False
1572.314	0.0	2Suff w/o Lat.	22	1572314	customarily	1.0	0.0	False
1573.572	0.0	1Suff PseudoStemNW	14	1573572	selvual	0.0	0.0	True
1574.356	0.0	2Suff w/o Lat.	22	1574356	artfully	1.0	0.0	False
1575.19	0.0	1Suff PseudoStemNW	14	1575190	inflisation	0.0	1.0	False
1576.523	0.0	1Suff w/o Lat.	12	1576523	effortless	1.0	0.0	False
1577.682	0.0	1Suff PseudoStemNW	14	1577682	movectize	0.0	1.0	False
1578.724	0.0	1Suff RealStemNW	15	1578724	admirless	0.0	1.0	False
1580.099	0.0	1Suff w/o Lat.	12	1580099	selfless	1.0	0.0	False
1581.141	0.0	2Suff PseudoStemNW	24	1581141	trithfully	0.0	1.0	False
1582.292	0.0	1Suff RealStemNW	15	1582292	feverory	0.0	1.0	False
1583.467	0.0	2Suff PseudoStemNW	24	1583467	mocondarily	0.0	1.0	False
1584.592	0.0	1Suff w/o Lat.	12	1584592	noisy	1.0	0.0	False
1585.559	0.0	2Suff w/o Lat.	22	1585559	modernistic	1.0	0.0	False
1586.851	0.0	0Suff w/o Lat.	2	1586851	tradition	1.0	0.0	False
1587.718	0.0	2Suff w/o Lat.	22	1587718	symbolically	1.0	0.0	False
1588.752	0.0	1Suff w/o Lat.	12	1588752	modulate	1.0	0.0	False
1589.727	0.0	1Suff w/o Lat.	12	1589727	justify	1.0	0.0	False
1590.603	0.0	2Suff PseudoStemNW	24	1590603	abadilionist	0.0	1.0	False
1592.095	0.0	1Suff w/ Lat.	11	1592095	presumable	1.0	0.0	False
1593.07	0.0	1Suff PseudoStemNW	14	1593070	pipsonal	0.0	1.0	False
1594.304	0.0	2Suff w/o Lat.	22	1594304	heartily	1.0	0.0	False
1595.462	0.0	0Suff NW	4	1595462	cank	0.0	1.0	False
1596.554	0.0	1Suff RealStemNW	15	1596554	preferless	0.0	1.0	False
1597.88	0.0	0Suff NW	4	1597880	assork	0.0	1.0	False
1599.222	0.0	0Suff w/o Lat.	2	1599222	prophet	1.0	0.0	False
1600.272	0.0	2Suff RealStemNW	25	1600272	signmentive	0.0	1.0	False
1601.814	0.0	2Suff RealStemNW	25	1601814	synchronilessly	0.0	1.0	False
1603.482	0.0	2Suff w/o Lat.	22	1603482	fertilizer	1.0	0.0	False
1604.44	0.0	2Suff w/ Lat.	21	1604440	expressionism	1.0	0.0	False
1605.949	0.0	2Suff PseudoStemNW	24	1605949	pipsonalize	0.0	1.0	False
1607.608	0.0	2Suff PseudoStemNW	24	1607608	awnfully	0.0	1.0	False
1609.5	0.0	2Suff w/o Lat.	22	1609500	helpfully	1.0		False
1611.901	0.0	1Suff w/o Lat.	12	1611901	breathless	1.0	0.0	False
1612.843	0.0	2Suff w/o Lat.	22	1612843	excellently	1.0	0.0	False
1613.71	0.0	2Suff RealStemNW	25	1613710	actfully	0.0	1.0	False
1615.485	0.0	2Suff Composite	23	1615485	paradoxical	1.0	0.0	False
1616.636	0.0	2Suff w/o Lat.	22	1616636	beautifully	1.0	0.0	False
1617.494	0.0	2Suff RealStemNW	25	1617494	nationical	0.0	0.0	True
1618.761	0.0	1Suff PseudoStemNW	14	1618761	mymbolic	0.0	1.0	False
1620.012	0.0	2Suff RealStemNW	25	1620012	excellalism	0.0	1.0	False
1621.479	0.0	2Suff Composite	23	1621479	farcical	1.0	0.0	False
1622.788	0.0	1Suff w/o Lat.	12	1622788	secondary	1.0	0.0	False
1623.679	0.0	0Suff w/o Lat.	2	1623679	exist	1.0	0.0	False
1624.505	0.0	2Suff PseudoStemNW	24	1624505	excrodiveness	0.0	1.0	False
1625.647	0.0	2Suff RealStemNW	25	1625647	quizzally	0.0	1.0	False
1627.397	0.0	2Suff Composite	23	1627397	quizzical	1.0	0.0	False
1628.789	0.0	0Suff w/o Lat.	2	1628789	luck	1.0	0.0	False
1629.623	0.0	1Suff RealStemNW	15	1629623	helpable	0.0	0.0	True
1630.498	0.0	2Suff w/o Lat.	22	1630498	cyclical	1.0	0.0	False
1631.432	0.0	2Suff PseudoStemNW	24	1631432	bleadfully	0.0	1.0	False
1632.624	0.0	0Suff NW	4	1632624	efforn	0.0	1.0	False
1634.041	0.0	2Suff RealStemNW	25	1634041	whimsally	0.0	1.0	False
1636.433	0.0	2Suff w/o Lat.	22	1636433	breathlessly	1.0	0.0	False
1637.5	0.0	2Suff RealStemNW	25	1637500	customantly	0.0	1.0	False
1638.951	0.0	2Suff w/o Lat.	22	1638951	greedily	1.0	1.0	True
1640.968	0.0	1Suff w/o Lat.	12	1640968	confidence	1.0	0.0	False
1643.311	0.0	0Suff NW	4	1643311	excrode	0.0	1.0	False
1644.611	0.0	1Suff PseudoStemNW	14	1644611	allendive	0.0	1.0	False
1645.836	0.0	2Suff w/o Lat.	22	1645836	mercifully	1.0	0.0	False
1647.228	0.0	1Suff RealStemNW	15	1647228	noticeless	0.0	0.0	True
1648.212	0.0	0Suff w/o Lat.	2	1648212	heart	1.0	0.0	False
1649.087	0.0	1Suff PseudoStemNW	14	1649087	booftiful	0.0	1.0	False
1650.404	0.0	2Suff w/o Lat.	22	1650404	magically	1.0	0.0	False
1651.28	0.0	2Suff RealStemNW	25	1651280	excessfully	0.0	0.0	True
1652.172	0.0	0Suff NW	4	1652172	contitum	0.0	1.0	False
1653.714	0.0	1Suff RealStemNW	15	1653714	abolitate	0.0	1.0	False
1655.039	0.0	0Suff w/o Lat.	2	1655039	cycle	1.0	0.0	False
1655.973	0.0	2Suff w/o Lat.	22	1655973	wonderfully	1.0	0.0	False
1657.373	0.0	1Suff PseudoStemNW	14	1657373	arpive	0.0	1.0	False
1658.449	0.0	1Suff RealStemNW	15	1658449	cyclal	0.0	0.0	True
1659.299	0.0	1Suff RealStemNW	15	1659299	exclusful	0.0	0.0	True
1660.307	0.0	1Suff RealStemNW	15	1660307	collectful	0.0	0.0	True
