onset	duration	trial_type	value	sample	stimulus	is_word	response	correct
30.253	0.0	0Suff NW	4	30253	snight	0.0	0.0	True
31.437	0.0	2Suff w/o Lat.	22	31437	dramatically	1.0	0.0	False
32.537	0.0	1Suff PseudoStemNW	14	32537	fleepy	0.0	1.0	False
33.638	0.0	0Suff NW	4	33638	awd	0.0	1.0	False
34.613	0.0	1Suff w/o Lat.	12	34613	thoughtful	1.0	0.0	False
35.797	0.0	0Suff w/o Lat.	2	35797	real	1.0	0.0	False
36.747	0.0	1Suff w/o Lat.	12	36747	useless	1.0	0.0	False
37.647	0.0	2Suff PseudoStemNW	24	37647	imoatization	0.0	1.0	False
38.814	0.0	1Suff w/o Lat.	12	38814	harmless	1.0	0.0	False
39.748	0.0	2Suff PseudoStemNW	24	39748	avoldability	0.0	1.0	False
40.815	0.0	1Suff PseudoStemNW	14	40815	etilor	0.0	1.0	False
41.773	0.0	2Suff PseudoStemNW	24	41773	devesugmental	0.0	1.0	False
42.765	0.0	1Suff w/o Lat.	12	42765	provocative	1.0	0.0	False
43.891	0.0	2Suff RealStemNW	25	43891	polioner	0.0	1.0	False
44.841	0.0	2Suff w/o Lat.	22	44841	considerably	1.0	0.0	False
45.891	0.0	2Suff w/o Lat.	22	45891	validation	1.0	0.0	False
46.858	0.0	2Suff w/o Lat.	22	46858	definitely	1.0	0.0	False
47.95	0.0	2Suff PseudoStemNW	24	47950	utefully	0.0	1.0	False
49.151	0.0	2Suff w/o Lat.	22	49151	accidentally	1.0	0.0	False
50.284	0.0	1Suff RealStemNW	15	50284	ritualify	0.0	0.0	True
51.418	0.0	0Suff w/o Lat.	2	51418	trivia	1.0	1.0	True
52.71	0.0	0Suff NW	4	52710	essoils	0.0	1.0	False
54.044	0.0	2Suff PseudoStemNW	24	54044	fleedily	0.0	1.0	False
55.103	0.0	0Suff w/o Lat.	2	55103	function	1.0	1.0	True
55.694	0.0	1Suff RealStemNW	15	55694	gracance	0.0	1.0	False
57.153	0.0	2Suff w/o Lat.	22	57153	partially	1.0	0.0	False
58.178	0.0	0Suff w/o Lat.	2	58178	globe	1.0	0.0	False
59.162	0.0	0Suff NW	4	59162	stitile	0.0	1.0	False
60.162	0.0	1Suff w/ Lat.	11	60162	persistent	1.0	0.0	False
61.104	0.0	1Suff RealStemNW	15	61104	availless	0.0	1.0	False
62.088	0.0	1Suff w/o Lat.	12	62088	notable	1.0	0.0	False
63.147	0.0	1Suff PseudoStemNW	14	63147	analkable	0.0	1.0	False
64.089	0.0	2Suff w/o Lat.	22	64089	leadership	1.0	0.0	False
65.122	0.0	2Suff w/ Lat.	21	65122	projectionist	1.0	1.0	True
66.164	0.0	2Suff PseudoStemNW	24	66164	squasification	0.0	1.0	False
67.19	0.0	1Suff w/o Lat.	12	67190	distinctive	1.0	0.0	False
68.39	0.0	2Suff w/o Lat.	22	68390	distinctively	1.0	0.0	False
69.54	0.0	2Suff RealStemNW	25	69540	realional	0.0	1.0	False
70.516	0.0	1Suff w/o Lat.	12	70516	substantial	1.0	0.0	False
71.499	0.0	1Suff PseudoStemNW	14	71499	mosimize	0.0	1.0	False
72.516	0.0	2Suff w/o Lat.	22	72516	occasionally	1.0	0.0	False
73.817	0.0	0Suff NW	4	73817	preguct	0.0	1.0	False
74.8	0.0	2Suff PseudoStemNW	24	74800	potarity	0.0	1.0	False
75.801	0.0	1Suff w/o Lat.	12	75801	commentate	1.0	0.0	False
76.876	0.0	1Suff RealStemNW	15	76876	confessate	0.0	1.0	False
78.518	0.0	1Suff w/ Lat.	11	78518	available	1.0	0.0	False
79.652	0.0	2Suff Composite	23	79652	biblical	1.0	0.0	False
80.694	0.0	1Suff RealStemNW	15	80694	thoughtive	0.0	1.0	False
81.819	0.0	0Suff NW	4	81819	analk	0.0	1.0	False
82.728	0.0	2Suff PseudoStemNW	24	82728	concuchualize	0.0	1.0	False
83.645	0.0	1Suff w/o Lat.	12	83645	restless	1.0	0.0	False
84.637	0.0	1Suff RealStemNW	15	84637	eany	0.0	1.0	False
85.62	0.0	1Suff w/o Lat.	12	85620	aimless	1.0	0.0	False
86.904	0.0	0Suff NW	4	86904	affall	0.0	1.0	False
87.813	0.0	0Suff NW	4	87813	frala	0.0	1.0	False
88.755	0.0	0Suff NW	4	88755	restit	0.0	1.0	False
89.805	0.0	2Suff w/o Lat.	22	89805	timeliness	1.0	0.0	False
91.039	0.0	0Suff NW	4	91039	atrie	0.0	1.0	False
92.014	0.0	1Suff PseudoStemNW	14	92014	tipely	0.0	1.0	False
93.089	0.0	0Suff w/o Lat.	2	93089	reason	1.0	0.0	False
94.165	0.0	0Suff NW	4	94165	han	0.0	1.0	False
95.14	0.0	2Suff w/o Lat.	22	95140	gracefully	1.0	0.0	False
96.19	0.0	0Suff NW	4	96190	fleed	0.0	0.0	True
97.382	0.0	2Suff w/o Lat.	22	97382	governmental	1.0	0.0	False
98.866	0.0	1Suff w/o Lat.	12	98866	racial	1.0	0.0	False
99.975	0.0	0Suff w/o Lat.	2	99975	glory	1.0	0.0	False
100.9	0.0	0Suff w/o Lat.	2	100900	ceremony	1.0	0.0	False
101.95	0.0	0Suff w/o Lat.	2	101950	fury	1.0	0.0	False
103.042	0.0	2Suff w/o Lat.	22	103042	sleepily	1.0	0.0	False
104.026	0.0	1Suff RealStemNW	15	104026	periodal	0.0	1.0	False
105.251	0.0	1Suff w/o Lat.	12	105251	relative	1.0	0.0	False
106.227	0.0	2Suff RealStemNW	25	106227	globical	0.0	0.0	True
107.177	0.0	1Suff RealStemNW	15	107177	instructate	0.0	1.0	False
108.494	0.0	1Suff PseudoStemNW	14	108494	chierful	0.0	1.0	False
109.594	0.0	0Suff w/o Lat.	2	109594	provoke	1.0	0.0	False
110.686	0.0	1Suff w/o Lat.	12	110686	furious	1.0	0.0	False
111.678	0.0	1Suff w/o Lat.	12	111678	realist	1.0	0.0	False
112.737	0.0	0Suff w/o Lat.	2	112737	market	1.0	0.0	False
113.671	0.0	1Suff RealStemNW	15	113671	logicic	0.0	1.0	False
114.838	0.0	0Suff w/o Lat.	2	114838	ideal	1.0	0.0	False
115.813	0.0	0Suff NW	4	115813	pote	0.0	1.0	False
116.796	0.0	0Suff NW	4	116796	moel	0.0	1.0	False
117.797	0.0	1Suff PseudoStemNW	14	117797	nolify	0.0	1.0	False
118.822	0.0	2Suff w/ Lat.	21	118822	availability	1.0	0.0	False
119.997	0.0	1Suff w/o Lat.	12	119997	development	1.0	0.0	False
121.198	0.0	2Suff PseudoStemNW	24	121198	pafferentiate	0.0	1.0	False
122.24	0.0	0Suff NW	4	122240	perburve	0.0	1.0	False
123.29	0.0	1Suff w/o Lat.	12	123290	delightful	1.0	0.0	False
124.299	0.0	0Suff NW	4	124299	itcress	0.0	1.0	False
125.232	0.0	2Suff w/o Lat.	22	125232	soulfully	1.0	1.0	True
126.258	0.0	1Suff RealStemNW	15	126258	protectate	0.0	1.0	False
127.358	0.0	0Suff w/o Lat.	2	127358	thank	1.0	0.0	False
128.383	0.0	2Suff Composite	23	128383	organization	1.0	0.0	False
129.45	0.0	2Suff w/o Lat.	22	129450	immunization	1.0	0.0	False
130.509	0.0	0Suff NW	4	130509	sest	0.0	1.0	False
131.509	0.0	0Suff NW	4	131509	appigent	0.0	1.0	False
132.443	0.0	1Suff PseudoStemNW	14	132443	priueurant	0.0	1.0	False
133.277	0.0	1Suff RealStemNW	15	133277	agreeless	0.0	1.0	False
134.277	0.0	0Suff NW	4	134277	figic	0.0	1.0	False
135.194	0.0	2Suff w/o Lat.	22	135194	gloriously	1.0	1.0	True
136.894	0.0	0Suff w/o Lat.	2	136894	edit	1.0	0.0	False
138.02	0.0	1Suff w/o Lat.	12	138020	familiar	1.0	0.0	False
138.953	0.0	1Suff RealStemNW	15	138953	poetal	0.0	1.0	False
139.862	0.0	0Suff NW	4	139862	prodfess	0.0	1.0	False
140.729	0.0	1Suff RealStemNW	15	140729	exhaustful	0.0	1.0	False
141.829	0.0	0Suff NW	4	141829	wate	0.0	1.0	False
142.863	0.0	0Suff NW	4	142863	sork	0.0	1.0	False
143.721	0.0	0Suff NW	4	143721	degor	0.0	1.0	False
144.53	0.0	2Suff RealStemNW	25	144530	sleepery	0.0	1.0	False
145.555	0.0	2Suff PseudoStemNW	24	145555	ewsibally	0.0	1.0	False
146.422	0.0	0Suff NW	4	146422	concuch	0.0	1.0	False
147.248	0.0	2Suff w/o Lat.	22	147248	ethically	1.0	0.0	False
148.256	0.0	0Suff w/o Lat.	2	148256	delight	1.0	0.0	False
149.115	0.0	0Suff w/ Lat.	1	149115	extend	1.0	0.0	False
150.09	0.0	0Suff NW	4	150090	corzess	0.0	1.0	False
150.907	0.0	1Suff PseudoStemNW	14	150907	essoilial	0.0	1.0	False
151.849	0.0	2Suff w/o Lat.	22	151849	differential	1.0	0.0	False
152.791	0.0	2Suff Composite	23	152791	vitalization	1.0	1.0	True
153.933	0.0	2Suff w/o Lat.	22	153933	painfully	1.0	1.0	True
160.668	0.0	1Suff w/o Lat.	12	160668	sterilize	1.0	0.0	False
161.627	0.0	0Suff NW	4	161627	mevion	0.0	0.0	True
162.594	0.0	0Suff w/o Lat.	2	162594	magnet	1.0	0.0	False
163.461	0.0	1Suff RealStemNW	15	163461	furance	0.0	1.0	False
164.728	0.0	2Suff w/o Lat.	22	164728	essentially	1.0	0.0	False
165.737	0.0	2Suff w/o Lat.	22	165737	wakefulness	1.0	1.0	True
167.02	0.0	1Suff w/ Lat.	11	167020	affirmative	1.0	0.0	False
168.146	0.0	2Suff PseudoStemNW	24	168146	prebitably	0.0	1.0	False
169.079	0.0	0Suff NW	4	169079	dehone	0.0	1.0	False
170.271	0.0	1Suff RealStemNW	15	170271	realify	0.0	0.0	True
171.547	0.0	1Suff RealStemNW	15	171547	considerion	0.0	1.0	False
172.514	0.0	1Suff PseudoStemNW	14	172514	chotintical	0.0	1.0	False
173.939	0.0	2Suff w/o Lat.	22	173939	moisturize	1.0	0.0	False
175.54	0.0	2Suff PseudoStemNW	24	175540	snoughtlessly	0.0	1.0	False
176.457	0.0	0Suff NW	4	176457	cunerogy	0.0	1.0	False
177.39	0.0	2Suff RealStemNW	25	177390	affirmatfully	0.0	1.0	False
178.616	0.0	2Suff RealStemNW	25	178616	accidentical	0.0	1.0	False
180.408	0.0	1Suff RealStemNW	15	180408	successate	0.0	1.0	False
181.917	0.0	0Suff NW	4	181917	hesa	0.0	1.0	False
182.758	0.0	1Suff w/o Lat.	12	182758	editor	1.0	0.0	False
183.767	0.0	2Suff PseudoStemNW	24	183767	prodfessively	0.0	1.0	False
184.709	0.0	2Suff w/o Lat.	22	184709	marketability	1.0	0.0	False
186.018	0.0	0Suff NW	4	186018	priueur	0.0	1.0	False
186.885	0.0	1Suff w/o Lat.	12	186885	ceremonial	1.0	1.0	True
187.902	0.0	1Suff w/o Lat.	12	187902	soften	1.0	0.0	False
189.327	0.0	1Suff RealStemNW	15	189327	leador	0.0	1.0	False
190.402	0.0	2Suff RealStemNW	25	190402	projectliness	0.0	1.0	False
191.803	0.0	0Suff w/o Lat.	2	191803	exhaust	1.0	0.0	False
192.853	0.0	0Suff NW	4	192853	imoat	0.0	1.0	False
193.737	0.0	2Suff w/o Lat.	22	193737	nervousness	1.0	0.0	False
194.745	0.0	2Suff w/o Lat.	22	194745	restlessness	1.0	0.0	False
196.763	0.0	2Suff PseudoStemNW	24	196763	tipeliness	0.0	1.0	False
197.78	0.0	1Suff PseudoStemNW	14	197780	urmerly	0.0	1.0	False
198.722	0.0	2Suff w/o Lat.	22	198722	differently	1.0	0.0	False
199.764	0.0	2Suff PseudoStemNW	24	199764	dehonitive	0.0	1.0	False
200.614	0.0	2Suff PseudoStemNW	24	200614	diructorship	0.0	1.0	False
201.739	0.0	2Suff PseudoStemNW	24	201739	mosimization	0.0	1.0	False
202.756	0.0	2Suff w/o Lat.	22	202756	seasonally	1.0	0.0	False
203.765	0.0	0Suff w/o Lat.	2	203765	success	1.0	0.0	False
204.665	0.0	0Suff NW	4	204665	provame	0.0	1.0	False
205.54	0.0	1Suff RealStemNW	15	205540	mistaker	0.0	1.0	False
206.791	0.0	1Suff w/o Lat.	12	206791	wakeful	1.0	0.0	False
207.933	0.0	0Suff NW	4	207933	betiece	0.0	1.0	False
209.142	0.0	1Suff w/o Lat.	12	209142	mobilize	1.0	0.0	False
210.342	0.0	0Suff w/o Lat.	2	210342	part	1.0	0.0	False
211.226	0.0	2Suff RealStemNW	25	211226	futurional	0.0	1.0	False
212.193	0.0	2Suff w/o Lat.	22	212193	manliness	1.0	1.0	True
213.443	0.0	0Suff w/o Lat.	2	213443	soft	1.0	0.0	False
214.427	0.0	2Suff RealStemNW	25	214427	moistantly	0.0	1.0	False
215.585	0.0	0Suff NW	4	215585	gulbs	0.0	1.0	False
216.502	0.0	0Suff w/o Lat.	2	216502	pole	1.0	0.0	False
217.703	0.0	1Suff w/o Lat.	12	217703	idealist	1.0	0.0	False
218.703	0.0	2Suff RealStemNW	25	218703	idealional	0.0	1.0	False
219.928	0.0	0Suff NW	4	219928	coul	0.0	1.0	False
220.87	0.0	2Suff w/o Lat.	22	220870	additional	1.0	0.0	False
221.929	0.0	0Suff NW	4	221929	pasnet	0.0	1.0	False
222.846	0.0	0Suff w/o Lat.	2	222846	thought	1.0	0.0	False
223.863	0.0	2Suff w/o Lat.	22	223863	thoughtlessly	1.0	0.0	False
225.013	0.0	2Suff w/o Lat.	22	225013	childishness	1.0	0.0	False
226.389	0.0	2Suff PseudoStemNW	24	226389	pinonical	0.0	1.0	False
227.372	0.0	2Suff PseudoStemNW	24	227372	gramiously	0.0	1.0	False
228.489	0.0	2Suff RealStemNW	25	228489	isolatmental	0.0	1.0	False
229.481	0.0	2Suff w/o Lat.	22	229481	protectionist	1.0	1.0	True
231.115	0.0	2Suff RealStemNW	25	231115	relateness	0.0	1.0	False
232.524	0.0	0Suff NW	4	232524	halk	0.0	1.0	False
233.449	0.0	1Suff RealStemNW	15	233449	educatate	0.0	1.0	False
234.883	0.0	0Suff NW	4	234883	lenction	0.0	1.0	False
235.816	0.0	0Suff w/o Lat.	2	235816	nerve	1.0	0.0	False
236.817	0.0	0Suff w/o Lat.	2	236817	guilt	1.0	0.0	False
237.817	0.0	0Suff w/ Lat.	1	237817	affirm	1.0	0.0	False
238.859	0.0	2Suff w/ Lat.	21	238859	extensively	1.0	1.0	True
239.609	0.0	2Suff Composite	23	239609	characteristic	1.0	0.0	False
240.66	0.0	2Suff PseudoStemNW	24	240660	posicarization	0.0	1.0	False
241.727	0.0	1Suff PseudoStemNW	14	241727	thacken	0.0	0.0	True
242.81	0.0	1Suff w/o Lat.	12	242810	isolation	1.0	0.0	False
243.744	0.0	2Suff w/o Lat.	22	243744	editorial	1.0	0.0	False
245.294	0.0	1Suff RealStemNW	15	245294	isolatate	0.0	1.0	False
247.112	0.0	2Suff w/o Lat.	22	247112	fatally	1.0	0.0	False
248.32	0.0	1Suff w/o Lat.	12	248320	fatal	1.0	0.0	False
249.229	0.0	2Suff PseudoStemNW	24	249229	onnensively	0.0	1.0	False
250.213	0.0	2Suff w/ Lat.	21	250213	impressionism	1.0	1.0	True
251.646	0.0	2Suff PseudoStemNW	24	251646	sorkener	0.0	1.0	False
252.563	0.0	0Suff w/o Lat.	2	252563	assassin	1.0	0.0	False
253.705	0.0	2Suff w/o Lat.	22	253705	thickener	1.0	1.0	True
254.847	0.0	0Suff w/o Lat.	2	254847	differ	1.0	0.0	False
256.448	0.0	2Suff w/o Lat.	22	256448	awfulness	1.0	0.0	False
258.015	0.0	1Suff RealStemNW	15	258015	impressate	0.0	1.0	False
259.49	0.0	1Suff PseudoStemNW	14	259490	falal	0.0	1.0	False
260.591	0.0	0Suff NW	4	260591	nerbs	0.0	1.0	False
261.991	0.0	1Suff PseudoStemNW	14	261991	affallion	0.0	1.0	False
262.925	0.0	1Suff w/o Lat.	12	262925	marginal	1.0	0.0	False
264.225	0.0	2Suff PseudoStemNW	24	264225	thackener	0.0	1.0	False
265.209	0.0	1Suff PseudoStemNW	14	265209	affaidative	0.0	1.0	False
266.242	0.0	1Suff RealStemNW	15	266242	exhibitate	0.0	1.0	False
267.376	0.0	0Suff w/o Lat.	2	267376	educate	1.0	0.0	False
268.46	0.0	1Suff RealStemNW	15	268460	manen	0.0	1.0	False
269.402	0.0	1Suff PseudoStemNW	14	269402	subplencial	0.0	1.0	False
270.277	0.0	2Suff RealStemNW	25	270277	impressliness	0.0	1.0	False
271.327	0.0	1Suff w/o Lat.	12	271327	timely	1.0	0.0	False
272.528	0.0	0Suff w/o Lat.	2	272528	valid	1.0	0.0	False
273.511	0.0	2Suff Composite	23	273511	pasteurization	1.0	1.0	True
274.57	0.0	2Suff RealStemNW	25	274570	editionate	0.0	1.0	False
275.87	0.0	0Suff NW	4	275870	ippune	0.0	1.0	False
276.812	0.0	2Suff w/o Lat.	22	276812	successfully	1.0	0.0	False
277.913	0.0	2Suff w/o Lat.	22	277913	glorification	1.0	0.0	False
279.03	0.0	1Suff w/o Lat.	12	279030	magnetic	1.0	0.0	False
279.905	0.0	2Suff w/o Lat.	22	279905	transitional	1.0	0.0	False
280.922	0.0	1Suff w/o Lat.	12	280922	designate	1.0	0.0	False
282.181	0.0	2Suff PseudoStemNW	24	282181	tutiously	0.0	1.0	False
283.589	0.0	1Suff PseudoStemNW	14	283589	hodeful	0.0	1.0	False
284.565	0.0	2Suff Composite	23	284565	mechanistic	1.0	0.0	False
286.632	0.0	1Suff w/o Lat.	12	286632	heroic	1.0	0.0	False
287.524	0.0	1Suff PseudoStemNW	14	287524	arful	0.0	1.0	False
288.674	0.0	2Suff PseudoStemNW	24	288674	eetwardly	0.0	1.0	False
289.591	0.0	0Suff NW	4	289591	helily	0.0	1.0	False
290.55	0.0	0Suff NW	4	290550	eant	0.0	1.0	False
291.575	0.0	1Suff w/o Lat.	12	291575	persuasive	1.0	0.0	False
292.826	0.0	2Suff w/o Lat.	22	292826	marginally	1.0	0.0	False
294.393	0.0	1Suff PseudoStemNW	14	294393	distawksive	0.0	1.0	False
308.572	0.0	2Suff RealStemNW	25	308572	assassinfully	0.0	1.0	False
310.039	0.0	0Suff w/o Lat.	2	310039	awe	1.0	0.0	False
311.306	0.0	2Suff w/o Lat.	22	311306	believably	1.0	1.0	True
312.823	0.0	2Suff PseudoStemNW	24	312823	distawksively	0.0	1.0	False
314.407	0.0	1Suff w/o Lat.	12	314407	stealthy	1.0	0.0	False
315.949	0.0	2Suff RealStemNW	25	315949	dramationist	0.0	1.0	False
317.308	0.0	2Suff w/o Lat.	22	317308	outwardly	1.0	0.0	False
318.475	0.0	0Suff w/ Lat.	1	318475	exhibit	1.0	0.0	False
319.45	0.0	0Suff w/o Lat.	2	319450	sterile	1.0	0.0	False
320.926	0.0	1Suff RealStemNW	15	320926	conceptuic	0.0	1.0	False
322.401	0.0	0Suff w/o Lat.	2	322401	note	1.0	0.0	False
323.852	0.0	0Suff w/o Lat.	2	323852	comment	1.0	0.0	False
324.869	0.0	1Suff w/o Lat.	12	324869	direction	1.0	0.0	False
325.852	0.0	0Suff w/o Lat.	2	325852	profit	1.0	0.0	False
326.869	0.0	2Suff w/o Lat.	22	326869	exhaustively	1.0	1.0	True
328.02	0.0	2Suff w/o Lat.	22	328020	partiality	1.0	n/a	False
330.412	0.0	0Suff w/o Lat.	2	330412	adapt	1.0	0.0	False
331.229	0.0	1Suff RealStemNW	15	331229	deadic	0.0	1.0	False
332.338	0.0	0Suff NW	4	332338	ais	0.0	1.0	False
333.246	0.0	1Suff w/o Lat.	12	333246	moisture	1.0	0.0	False
334.172	0.0	0Suff NW	4	334172	prebit	0.0	1.0	False
335.489	0.0	1Suff w/o Lat.	12	335489	adaptable	1.0	0.0	False
336.547	0.0	2Suff PseudoStemNW	24	336547	deterfuristic	0.0	1.0	False
337.498	0.0	2Suff PseudoStemNW	24	337498	analkability	0.0	1.0	False
338.423	0.0	2Suff RealStemNW	25	338423	manionist	0.0	1.0	False
339.457	0.0	2Suff RealStemNW	25	339457	raceical	0.0	1.0	False
340.524	0.0	2Suff PseudoStemNW	24	340524	essoilially	0.0	1.0	False
341.507	0.0	1Suff PseudoStemNW	14	341507	ramial	0.0	1.0	False
342.449	0.0	1Suff w/o Lat.	12	342449	seasonal	1.0	0.0	False
343.541	0.0	0Suff w/o Lat.	2	343541	race	1.0	0.0	False
344.483	0.0	0Suff w/o Lat.	2	344483	hero	1.0	0.0	False
345.492	0.0	2Suff w/o Lat.	22	345492	substantially	1.0	0.0	False
346.992	0.0	2Suff PseudoStemNW	24	346992	coppentator	0.0	1.0	False
348.076	0.0	2Suff PseudoStemNW	24	348076	figically	0.0	1.0	False
349.143	0.0	1Suff w/o Lat.	12	349143	poetic	1.0	0.0	False
350.352	0.0	0Suff w/o Lat.	2	350352	essence	1.0	0.0	False
351.452	0.0	2Suff RealStemNW	25	351452	forgetiveness	0.0	1.0	False
352.652	0.0	2Suff RealStemNW	25	352652	financeical	0.0	1.0	False
353.869	0.0	1Suff w/o Lat.	12	353869	definite	1.0	0.0	False
354.903	0.0	0Suff w/ Lat.	1	354903	avail	1.0	0.0	False
356.128	0.0	0Suff NW	4	356128	chotintic	0.0	1.0	False
357.12	0.0	1Suff PseudoStemNW	14	357120	lenctional	0.0	1.0	False
358.087	0.0	0Suff NW	4	358087	paffer	0.0	1.0	False
359.004	0.0	2Suff RealStemNW	25	359004	aimiously	0.0	1.0	False
359.971	0.0	1Suff w/ Lat.	11	359971	extensive	1.0	0.0	False
360.98	0.0	2Suff w/o Lat.	22	360980	intensively	1.0	0.0	False
362.08	0.0	0Suff w/o Lat.	2	362080	glee	1.0	0.0	False
363.064	0.0	0Suff w/o Lat.	2	363064	relate	1.0	0.0	False
363.973	0.0	0Suff w/o Lat.	2	363973	compete	1.0	0.0	False
364.773	0.0	2Suff PseudoStemNW	24	364773	hodelessly	0.0	1.0	False
366.065	0.0	0Suff NW	4	366065	chansot	0.0	1.0	False
367.023	0.0	2Suff RealStemNW	25	367023	conceptuical	0.0	1.0	False
368.082	0.0	1Suff PseudoStemNW	14	368082	appigental	0.0	1.0	False
369.057	0.0	2Suff RealStemNW	25	369057	hopeively	0.0	1.0	False
370.091	0.0	0Suff w/ Lat.	1	370091	concept	1.0	0.0	False
371.191	0.0	2Suff RealStemNW	25	371191	believator	0.0	1.0	False
372.2	0.0	0Suff NW	4	372200	bant	0.0	1.0	False
373.184	0.0	0Suff w/ Lat.	1	373184	mistake	1.0	0.0	False
374.142	0.0	2Suff Composite	23	374142	revitalization	1.0	1.0	True
375.109	0.0	0Suff NW	4	375109	rame	0.0	0.0	True
376.043	0.0	2Suff RealStemNW	25	376043	executarity	0.0	1.0	False
377.093	0.0	0Suff w/o Lat.	2	377093	use	1.0	0.0	False
378.035	0.0	0Suff w/o Lat.	2	378035	immune	1.0	0.0	False
379.111	0.0	0Suff w/o Lat.	2	379111	isolate	1.0	0.0	False
379.952	0.0	2Suff PseudoStemNW	24	379952	paftially	0.0	1.0	False
380.903	0.0	2Suff RealStemNW	25	380903	directality	0.0	1.0	False
382.236	0.0	1Suff w/ Lat.	11	382236	predictable	1.0	0.0	False
383.295	0.0	2Suff w/o Lat.	22	383295	stealthily	1.0	0.0	False
384.479	0.0	1Suff RealStemNW	15	384479	familior	0.0	1.0	False
385.788	0.0	0Suff w/o Lat.	2	385788	child	1.0	0.0	False
386.763	0.0	1Suff RealStemNW	15	386763	magnetal	0.0	0.0	True
388.172	0.0	2Suff w/o Lat.	22	388172	idealization	1.0	0.0	False
389.164	0.0	1Suff PseudoStemNW	14	389164	rumical	0.0	1.0	False
390.322	0.0	0Suff NW	4	390322	desalk	0.0	1.0	False
391.239	0.0	1Suff PseudoStemNW	14	391239	coppentate	0.0	1.0	False
392.873	0.0	1Suff w/o Lat.	12	392873	global	1.0	0.0	False
394.157	0.0	2Suff RealStemNW	25	394157	governancial	0.0	1.0	False
395.457	0.0	1Suff w/o Lat.	12	395457	intensive	1.0	0.0	False
396.491	0.0	2Suff RealStemNW	25	396491	provocatfully	0.0	1.0	False
397.575	0.0	1Suff RealStemNW	15	397575	basly	0.0	1.0	False
398.667	0.0	1Suff PseudoStemNW	14	398667	reration	0.0	1.0	False
400.05	0.0	2Suff PseudoStemNW	24	400050	mistilenly	0.0	1.0	False
401.334	0.0	2Suff RealStemNW	25	401334	familierage	0.0	1.0	False
402.551	0.0	1Suff w/ Lat.	11	402551	impression	1.0	0.0	False
403.518	0.0	1Suff PseudoStemNW	14	403518	farsen	0.0	1.0	False
404.718	0.0	1Suff w/o Lat.	12	404718	considerate	1.0	0.0	False
405.944	0.0	2Suff w/o Lat.	22	405944	guiltiness	1.0	1.0	True
407.361	0.0	2Suff w/ Lat.	21	407361	persistently	1.0	1.0	True
409.336	0.0	2Suff w/o Lat.	22	409336	originally	1.0	0.0	False
410.403	0.0	2Suff PseudoStemNW	24	410403	detismsfully	0.0	1.0	False
411.495	0.0	2Suff RealStemNW	25	411495	vitalilessly	0.0	1.0	False
412.512	0.0	2Suff w/o Lat.	22	412512	painlessly	1.0	n/a	False
414.913	0.0	1Suff PseudoStemNW	14	414913	devadive	0.0	1.0	False
415.872	0.0	0Suff w/o Lat.	2	415872	architect	1.0	0.0	False
416.872	0.0	2Suff w/o Lat.	22	416872	statistically	1.0	0.0	False
417.947	0.0	0Suff NW	4	417947	pead	0.0	1.0	False
418.848	0.0	0Suff w/o Lat.	2	418848	poet	1.0	0.0	False
419.79	0.0	2Suff w/o Lat.	22	419790	regrettably	1.0	0.0	False
420.848	0.0	1Suff PseudoStemNW	14	420848	stumial	0.0	1.0	False
421.79	0.0	2Suff PseudoStemNW	24	421790	thashfulness	0.0	1.0	False
423.041	0.0	1Suff RealStemNW	15	423041	immunist	0.0	0.0	True
424.058	0.0	2Suff w/o Lat.	22	424058	furiously	1.0	0.0	False
425.241	0.0	0Suff w/o Lat.	2	425241	confess	1.0	0.0	False
426.342	0.0	0Suff NW	4	426342	meabon	0.0	1.0	False
427.375	0.0	2Suff PseudoStemNW	24	427375	pafleurization	0.0	1.0	False
428.367	0.0	2Suff RealStemNW	25	428367	confessality	0.0	1.0	False
429.459	0.0	2Suff w/o Lat.	22	429459	delightfully	1.0	0.0	False
430.601	0.0	1Suff w/o Lat.	12	430601	manly	1.0	0.0	False
431.785	0.0	2Suff Composite	23	431785	affectation	1.0	1.0	True
433.169	0.0	2Suff w/ Lat.	21	433169	mistakenly	1.0	0.0	False
434.327	0.0	1Suff PseudoStemNW	14	434327	preguctable	0.0	1.0	False
435.528	0.0	2Suff RealStemNW	25	435528	marketfulness	0.0	0.0	True
437.153	0.0	0Suff NW	4	437153	thack	0.0	1.0	False
438.087	0.0	1Suff w/o Lat.	12	438087	nervous	1.0	0.0	False
439.229	0.0	1Suff w/ Lat.	11	439229	affection	1.0	0.0	False
440.179	0.0	1Suff PseudoStemNW	14	440179	steadthy	0.0	1.0	False
441.688	0.0	2Suff PseudoStemNW	24	441688	vimidation	0.0	1.0	False
442.788	0.0	2Suff RealStemNW	25	442788	persistalism	0.0	1.0	False
443.964	0.0	2Suff PseudoStemNW	24	443964	stumialize	0.0	1.0	False
452.5	0.0	1Suff w/o Lat.	12	452500	essential	1.0	0.0	False
453.517	0.0	2Suff RealStemNW	25	453517	subjectfully	0.0	0.0	True
454.492	0.0	1Suff PseudoStemNW	14	454492	eseretion	0.0	1.0	False
455.484	0.0	0Suff NW	4	455484	miccess	0.0	1.0	False
457.226	0.0	2Suff PseudoStemNW	24	457226	pipplification	0.0	1.0	False
458.477	0.0	1Suff w/o Lat.	12	458477	accidental	1.0	0.0	False
459.927	0.0	2Suff RealStemNW	25	459927	decorural	0.0	1.0	False
461.286	0.0	2Suff w/o Lat.	22	461286	relational	1.0	0.0	False
462.419	0.0	1Suff PseudoStemNW	14	462419	ewsibal	0.0	1.0	False
463.37	0.0	1Suff w/ Lat.	11	463370	subjective	1.0	0.0	False
464.562	0.0	0Suff NW	4	464562	orifad	0.0	1.0	False
465.479	0.0	1Suff w/o Lat.	12	465479	agreeable	1.0	0.0	False
466.596	0.0	2Suff w/o Lat.	22	466596	familiarity	1.0	0.0	False
467.513	0.0	2Suff PseudoStemNW	24	467513	denboderation	0.0	1.0	False
468.613	0.0	2Suff w/o Lat.	22	468613	functionally	1.0	0.0	False
469.638	0.0	0Suff w/o Lat.	2	469638	myth	1.0	0.0	False
470.73	0.0	1Suff w/o Lat.	12	470730	marketable	1.0	0.0	False
471.689	0.0	1Suff w/o Lat.	12	471689	director	1.0	0.0	False
472.589	0.0	2Suff w/ Lat.	21	472589	subjectively	1.0	0.0	False
473.465	0.0	0Suff NW	4	473465	esdybit	0.0	1.0	False
474.615	0.0	1Suff w/o Lat.	12	474615	decisive	1.0	0.0	False
475.857	0.0	1Suff PseudoStemNW	14	475857	meabonal	0.0	1.0	False
476.882	0.0	1Suff w/o Lat.	12	476882	awful	1.0	0.0	False
477.758	0.0	1Suff w/o Lat.	12	477758	faithful	1.0	0.0	False
478.708	0.0	0Suff w/o Lat.	2	478708	decide	1.0	0.0	False
479.583	0.0	2Suff RealStemNW	25	479583	definerize	0.0	1.0	False
480.733	0.0	2Suff RealStemNW	25	480733	guardifiance	0.0	1.0	False
481.9	0.0	1Suff w/o Lat.	12	481900	frightful	1.0	0.0	False
483.618	0.0	1Suff w/o Lat.	12	483618	painful	1.0	0.0	False
484.535	0.0	1Suff RealStemNW	15	484535	provocatful	0.0	1.0	False
485.952	0.0	1Suff w/o Lat.	12	485952	assassinate	1.0	0.0	False
487.369	0.0	0Suff NW	4	487369	fars	0.0	1.0	False
488.911	0.0	1Suff w/o Lat.	12	488911	hopeful	1.0	0.0	False
489.911	0.0	0Suff w/o Lat.	2	489911	health	1.0	0.0	False
490.778	0.0	0Suff w/o Lat.	2	490778	hope	1.0	0.0	False
491.628	0.0	2Suff w/o Lat.	22	491628	triviality	1.0	1.0	True
492.845	0.0	0Suff NW	4	492845	fale	0.0	1.0	False
494.021	0.0	0Suff w/ Lat.	1	494021	predict	1.0	0.0	False
494.896	0.0	2Suff RealStemNW	25	494896	ailistic	0.0	1.0	False
495.913	0.0	2Suff RealStemNW	25	495913	glorliness	0.0	1.0	False
497.497	0.0	2Suff PseudoStemNW	24	497497	pasnetically	0.0	1.0	False
498.497	0.0	2Suff Composite	23	498497	satirical	1.0	1.0	True
499.414	0.0	2Suff w/o Lat.	22	499414	graciously	1.0	0.0	False
500.523	0.0	2Suff PseudoStemNW	24	500523	vefation	0.0	1.0	False
501.79	0.0	1Suff w/ Lat.	11	501790	conceptual	1.0	0.0	False
503.34	0.0	2Suff Composite	23	503340	simplification	1.0	0.0	False
504.524	0.0	1Suff PseudoStemNW	14	504524	paskful	0.0	1.0	False
505.458	0.0	1Suff w/o Lat.	12	505458	thoughtless	1.0	0.0	False
506.958	0.0	2Suff RealStemNW	25	506958	substanceical	0.0	1.0	False
508.292	0.0	1Suff PseudoStemNW	14	508292	orifadate	0.0	1.0	False
509.401	0.0	2Suff PseudoStemNW	24	509401	concolerably	0.0	1.0	False
510.401	0.0	2Suff PseudoStemNW	24	510401	restittably	0.0	1.0	False
511.335	0.0	1Suff RealStemNW	15	511335	assassinion	0.0	1.0	False
512.685	0.0	0Suff NW	4	512685	rumic	0.0	1.0	False
513.585	0.0	0Suff NW	4	513585	diruce	0.0	1.0	False
514.419	0.0	2Suff PseudoStemNW	24	514419	nerbousness	0.0	1.0	False
515.427	0.0	0Suff w/o Lat.	2	515427	develop	1.0	0.0	False
516.503	0.0	0Suff w/o Lat.	2	516503	speed	1.0	0.0	False
517.378	0.0	2Suff w/o Lat.	22	517378	editorship	1.0	0.0	False
518.528	0.0	0Suff w/o Lat.	2	518528	persuade	1.0	0.0	False
519.42	0.0	2Suff PseudoStemNW	24	519420	priueurantly	0.0	1.0	False
520.429	0.0	1Suff w/o Lat.	12	520429	cheerful	1.0	0.0	False
521.329	0.0	2Suff w/o Lat.	22	521329	commentator	1.0	1.0	True
522.396	0.0	1Suff RealStemNW	15	522396	persuasful	0.0	1.0	False
523.813	0.0	2Suff Composite	23	523813	perturbation	1.0	0.0	False
525.172	0.0	1Suff PseudoStemNW	14	525172	vimidate	0.0	1.0	False
526.606	0.0	2Suff RealStemNW	25	526606	isolatliness	0.0	1.0	False
527.906	0.0	2Suff PseudoStemNW	24	527906	cidlical	0.0	1.0	False
528.973	0.0	0Suff w/o Lat.	2	528973	thick	1.0	0.0	False
529.957	0.0	2Suff PseudoStemNW	24	529957	allidation	0.0	1.0	False
531.082	0.0	1Suff RealStemNW	15	531082	directar	0.0	1.0	False
532.133	0.0	1Suff PseudoStemNW	14	532133	aisless	0.0	1.0	False
533.041	0.0	0Suff NW	4	533041	paft	0.0	1.0	False
534.258	0.0	1Suff PseudoStemNW	14	534258	worchless	0.0	1.0	False
535.2	0.0	1Suff w/o Lat.	12	535200	hopeless	1.0	0.0	False
536.351	0.0	0Suff w/o Lat.	2	536351	regret	1.0	0.0	False
537.267	0.0	2Suff w/ Lat.	21	537267	affectionate	1.0	0.0	False
538.201	0.0	2Suff Composite	23	538201	categorical	1.0	0.0	False
539.218	0.0	2Suff w/o Lat.	22	539218	relativity	1.0	0.0	False
540.252	0.0	1Suff PseudoStemNW	14	540252	orifadal	0.0	1.0	False
541.402	0.0	0Suff w/o Lat.	2	541402	believe	1.0	0.0	False
542.436	0.0	2Suff w/o Lat.	22	542436	notification	1.0	0.0	False
543.444	0.0	2Suff w/o Lat.	22	543444	polarity	1.0	0.0	False
544.545	0.0	1Suff w/o Lat.	12	544545	useful	1.0	0.0	False
545.445	0.0	0Suff w/ Lat.	1	545445	project	1.0	0.0	False
546.412	0.0	1Suff RealStemNW	15	546412	marketless	0.0	0.0	True
547.746	0.0	2Suff w/o Lat.	22	547746	frightfully	1.0	0.0	False
548.696	0.0	0Suff w/ Lat.	1	548696	affect	1.0	0.0	False
549.571	0.0	2Suff w/ Lat.	21	549571	progressively	1.0	0.0	False
550.78	0.0	2Suff w/o Lat.	22	550780	hopelessly	1.0	0.0	False
551.997	0.0	0Suff w/o Lat.	2	551997	fate	1.0	0.0	False
553.331	0.0	0Suff NW	4	553331	thiend	0.0	1.0	False
554.514	0.0	2Suff Composite	23	554514	stratification	1.0	0.0	False
555.957	0.0	2Suff PseudoStemNW	24	555957	rerativity	0.0	1.0	False
557.382	0.0	2Suff w/o Lat.	22	557382	usefully	1.0	0.0	False
558.424	0.0	2Suff RealStemNW	25	558424	affectorship	0.0	1.0	False
560.049	0.0	2Suff RealStemNW	25	560049	fatical	0.0	1.0	False
561.35	0.0	1Suff w/o Lat.	12	561350	speedy	1.0	0.0	False
562.367	0.0	1Suff w/o Lat.	12	562367	outward	1.0	0.0	False
563.451	0.0	2Suff w/o Lat.	22	563451	mobilization	1.0	0.0	False
564.709	0.0	2Suff w/o Lat.	22	564709	definitive	1.0	0.0	False
565.635	0.0	1Suff w/o Lat.	12	565635	glorify	1.0	0.0	False
566.518	0.0	2Suff w/o Lat.	22	566518	assassination	1.0	0.0	False
567.794	0.0	2Suff w/ Lat.	21	567794	exhibitionism	1.0	0.0	False
568.969	0.0	0Suff w/o Lat.	2	568969	agree	1.0	0.0	False
569.836	0.0	2Suff PseudoStemNW	24	569836	snightfully	0.0	0.0	True
571.136	0.0	2Suff PseudoStemNW	24	571136	orifadality	0.0	1.0	False
572.178	0.0	2Suff RealStemNW	25	572178	educatality	0.0	1.0	False
573.387	0.0	0Suff w/o Lat.	2	573387	harm	1.0	0.0	False
574.387	0.0	2Suff w/o Lat.	22	574387	fatalist	1.0	0.0	False
575.638	0.0	2Suff Composite	23	575638	utilization	1.0	0.0	False
576.78	0.0	2Suff PseudoStemNW	24	576780	utelessness	0.0	1.0	False
578.047	0.0	1Suff RealStemNW	15	578047	sterilist	0.0	0.0	True
579.714	0.0	2Suff w/o Lat.	22	579714	thankfulness	1.0	0.0	False
580.989	0.0	1Suff RealStemNW	15	580989	competitful	0.0	1.0	False
583.015	0.0	0Suff w/o Lat.	2	583015	consider	1.0	0.0	False
584.157	0.0	1Suff RealStemNW	15	584157	developward	0.0	1.0	False
585.357	0.0	0Suff NW	4	585357	vimid	0.0	1.0	False
586.399	0.0	2Suff w/o Lat.	22	586399	healthily	1.0	0.0	False
592.626	0.0	0Suff w/o Lat.	2	592626	cheer	1.0	0.0	False
593.802	0.0	0Suff NW	4	593802	faulm	0.0	1.0	False
594.785	0.0	2Suff PseudoStemNW	24	594785	reratively	0.0	1.0	False
596.219	0.0	2Suff RealStemNW	25	596219	notifilessly	0.0	1.0	False
598.328	0.0	1Suff w/o Lat.	12	598328	guardian	1.0	0.0	False
599.295	0.0	0Suff w/o Lat.	2	599295	accident	1.0	n/a	False
601.696	0.0	2Suff w/o Lat.	22	601696	racially	1.0	0.0	False
602.904	0.0	0Suff NW	4	602904	manfin	0.0	1.0	False
603.996	0.0	2Suff w/o Lat.	22	603996	agreeably	1.0	0.0	False
605.038	0.0	2Suff PseudoStemNW	24	605038	adstification	0.0	1.0	False
606.055	0.0	0Suff NW	4	606055	cossete	0.0	1.0	False
607.122	0.0	1Suff PseudoStemNW	14	607122	paftial	0.0	1.0	False
608.039	0.0	0Suff NW	4	608039	rhylph	0.0	1.0	False
608.931	0.0	2Suff PseudoStemNW	24	608931	instrovtional	0.0	1.0	False
609.865	0.0	1Suff PseudoStemNW	14	609865	pavediadist	0.0	1.0	False
610.773	0.0	1Suff PseudoStemNW	14	610773	fleedy	0.0	1.0	False
611.882	0.0	2Suff Composite	23	611882	sterilization	1.0	0.0	False
612.874	0.0	1Suff RealStemNW	15	612874	financeic	0.0	1.0	False
613.816	0.0	1Suff RealStemNW	15	613816	painable	0.0	1.0	False
615.15	0.0	2Suff PseudoStemNW	24	615150	cossetitively	0.0	1.0	False
616.05	0.0	2Suff w/ Lat.	21	616050	affirmatively	1.0	0.0	False
617.325	0.0	0Suff w/o Lat.	2	617325	define	1.0	0.0	False
618.359	0.0	2Suff RealStemNW	25	618359	awively	0.0	1.0	False
619.426	0.0	2Suff PseudoStemNW	24	619426	segnonistic	0.0	1.0	False
620.393	0.0	1Suff PseudoStemNW	14	620393	deabonable	0.0	1.0	False
621.585	0.0	2Suff w/o Lat.	22	621585	reasonably	1.0	0.0	False
622.735	0.0	1Suff PseudoStemNW	14	622735	snightful	0.0	1.0	False
623.636	0.0	0Suff w/o Lat.	2	623636	friend	1.0	0.0	False
624.611	0.0	1Suff RealStemNW	15	624611	forgetive	0.0	0.0	True
625.57	0.0	1Suff PseudoStemNW	14	625570	fralatize	0.0	1.0	False
626.812	0.0	2Suff w/o Lat.	22	626812	poetical	1.0	0.0	False
627.92	0.0	0Suff w/ Lat.	1	627920	instruct	1.0	0.0	False
628.921	0.0	0Suff NW	4	628921	subplence	0.0	1.0	False
629.863	0.0	0Suff NW	4	629863	eserete	0.0	1.0	False
630.921	0.0	1Suff w/o Lat.	12	630921	glorious	1.0	0.0	False
632.113	0.0	1Suff w/o Lat.	12	632113	leader	1.0	0.0	False
633.205	0.0	0Suff NW	4	633205	snought	0.0	1.0	False
634.264	0.0	1Suff w/o Lat.	12	634264	painless	1.0	0.0	False
635.323	0.0	0Suff NW	4	635323	chird	0.0	1.0	False
636.573	0.0	1Suff RealStemNW	15	636573	differify	0.0	1.0	False
638.124	0.0	2Suff RealStemNW	25	638124	soulively	0.0	1.0	False
639.216	0.0	2Suff Composite	23	639216	amplification	1.0	0.0	False
640.433	0.0	1Suff PseudoStemNW	14	640433	cunerogial	0.0	1.0	False
641.358	0.0	2Suff PseudoStemNW	24	641358	watefulness	0.0	0.0	True
642.441	0.0	0Suff w/o Lat.	2	642441	decor	1.0	1.0	True
643.45	0.0	0Suff NW	4	643450	mosime	0.0	1.0	False
644.842	0.0	0Suff NW	4	644842	stoteld	0.0	1.0	False
645.793	0.0	0Suff w/o Lat.	2	645793	grace	1.0	0.0	False
646.793	0.0	2Suff w/o Lat.	22	646793	developmental	1.0	0.0	False
647.718	0.0	1Suff w/o Lat.	12	647718	original	1.0	0.0	False
648.618	0.0	2Suff RealStemNW	25	648618	characterional	0.0	1.0	False
649.944	0.0	1Suff PseudoStemNW	14	649944	snoughtless	0.0	1.0	False
650.927	0.0	0Suff w/o Lat.	2	650927	wake	1.0	0.0	False
651.944	0.0	0Suff w/o Lat.	2	651944	forget	1.0	0.0	False
652.786	0.0	2Suff w/o Lat.	22	652786	fatalism	1.0	0.0	False
653.962	0.0	2Suff w/o Lat.	22	653962	originality	1.0	0.0	False
654.879	0.0	1Suff w/o Lat.	12	654879	education	1.0	0.0	False
655.754	0.0	0Suff w/o Lat.	2	655754	faith	1.0	0.0	False
656.554	0.0	1Suff w/o Lat.	12	656554	originate	1.0	0.0	False
657.529	0.0	1Suff w/o Lat.	12	657529	exhaustive	1.0	0.0	False
658.663	0.0	1Suff w/o Lat.	12	658663	transition	1.0	0.0	False
659.58	0.0	1Suff w/o Lat.	12	659580	childish	1.0	0.0	False
660.389	0.0	2Suff PseudoStemNW	24	660389	pafferential	0.0	1.0	False
661.356	0.0	1Suff RealStemNW	15	661356	heroal	0.0	1.0	False
662.423	0.0	2Suff w/o Lat.	22	662423	persuasively	1.0	0.0	False
663.64	0.0	0Suff NW	4	663640	distawks	0.0	1.0	False
664.723	0.0	2Suff PseudoStemNW	24	664723	pasklessly	0.0	1.0	False
665.674	0.0	1Suff PseudoStemNW	14	665674	grameful	0.0	1.0	False
666.666	0.0	1Suff w/o Lat.	12	666666	dramatize	1.0	1.0	True
667.933	0.0	2Suff PseudoStemNW	24	667933	comlomation	0.0	1.0	False
668.858	0.0	2Suff w/o Lat.	22	668858	directorship	1.0	1.0	True
670.525	0.0	2Suff PseudoStemNW	24	670525	esdybitionism	0.0	1.0	False
671.575	0.0	1Suff w/o Lat.	12	671575	thicken	1.0	0.0	False
672.859	0.0	2Suff w/o Lat.	22	672859	trivialize	1.0	0.0	False
674.068	0.0	1Suff RealStemNW	15	674068	soulive	0.0	1.0	False
675.135	0.0	1Suff RealStemNW	15	675135	architectian	0.0	1.0	False
676.41	0.0	0Suff w/o Lat.	2	676410	family	1.0	0.0	False
677.469	0.0	1Suff PseudoStemNW	14	677469	diruction	0.0	1.0	False
678.494	0.0	2Suff RealStemNW	25	678494	marginical	0.0	1.0	False
679.695	0.0	2Suff w/o Lat.	22	679695	notably	1.0	0.0	False
680.853	0.0	1Suff w/o Lat.	12	680853	regrettable	1.0	0.0	False
682.22	0.0	0Suff NW	4	682220	chier	0.0	1.0	False
683.221	0.0	2Suff RealStemNW	25	683221	familiately	0.0	1.0	False
684.404	0.0	2Suff Composite	23	684404	deterministic	1.0	1.0	True
685.546	0.0	1Suff RealStemNW	15	685546	idealate	0.0	1.0	False
686.622	0.0	0Suff w/o Lat.	2	686622	pain	1.0	1.0	True
687.439	0.0	0Suff NW	4	687439	stumia	0.0	1.0	False
689.098	0.0	1Suff RealStemNW	15	689098	marginic	0.0	1.0	False
690.098	0.0	2Suff w/o Lat.	22	690098	orderliness	1.0	1.0	True
691.373	0.0	2Suff w/o Lat.	22	691373	educational	1.0	0.0	False
692.524	0.0	1Suff PseudoStemNW	14	692524	hythical	0.0	1.0	False
693.491	0.0	2Suff w/o Lat.	22	693491	originator	1.0	0.0	False
695.049	0.0	1Suff RealStemNW	15	695049	useive	0.0	1.0	False
696.091	0.0	1Suff PseudoStemNW	14	696091	prodfessive	0.0	1.0	False
697.083	0.0	2Suff Composite	23	697083	futuristic	1.0	0.0	False
698.267	0.0	0Suff NW	4	698267	arx	0.0	1.0	False
699.217	0.0	2Suff w/o Lat.	22	699217	awfully	1.0	0.0	False
700.401	0.0	2Suff w/o Lat.	22	700401	hopelessness	1.0	0.0	False
701.518	0.0	1Suff w/ Lat.	11	701518	progressive	1.0	0.0	False
702.493	0.0	2Suff Composite	23	702493	quotation	1.0	0.0	False
703.71	0.0	0Suff w/o Lat.	2	703710	peace	1.0	0.0	False
704.627	0.0	0Suff NW	4	704627	rerard	0.0	1.0	False
705.828	0.0	0Suff NW	4	705828	affaid	0.0	1.0	False
706.911	0.0	2Suff PseudoStemNW	24	706911	affallation	0.0	1.0	False
707.928	0.0	2Suff w/o Lat.	22	707928	ritualistic	1.0	0.0	False
709.554	0.0	2Suff RealStemNW	25	709554	ritualional	0.0	1.0	False
710.896	0.0	1Suff PseudoStemNW	14	710896	glibal	0.0	1.0	False
711.955	0.0	2Suff Composite	23	711955	canonical	1.0	0.0	False
713.63	0.0	0Suff w/o Lat.	2	713630	season	1.0	0.0	False
714.605	0.0	2Suff w/o Lat.	22	714605	architectural	1.0	0.0	False
715.931	0.0	0Suff NW	4	715931	mowth	0.0	1.0	False
717.098	0.0	2Suff RealStemNW	25	717098	transitality	0.0	0.0	True
718.757	0.0	2Suff w/o Lat.	22	718757	cheerfully	1.0	0.0	False
719.882	0.0	0Suff w/o Lat.	2	719882	soul	1.0	0.0	False
720.907	0.0	2Suff w/o Lat.	22	720907	nervously	1.0	0.0	False
721.849	0.0	2Suff w/o Lat.	22	721849	softener	1.0	0.0	False
722.883	0.0	2Suff w/ Lat.	21	722883	impressionist	1.0	1.0	True
724.108	0.0	2Suff RealStemNW	25	724108	agreeally	0.0	1.0	False
725.659	0.0	0Suff NW	4	725659	tuty	0.0	1.0	False
742.047	0.0	2Suff PseudoStemNW	24	742047	perburbation	0.0	0.0	True
743.706	0.0	2Suff RealStemNW	25	743706	predictator	0.0	n/a	False
746.098	0.0	0Suff w/o Lat.	2	746098	margin	1.0	0.0	False
747.09	0.0	0Suff w/o Lat.	2	747090	drama	1.0	0.0	False
747.899	0.0	0Suff NW	4	747899	steadth	0.0	1.0	False
749.041	0.0	1Suff PseudoStemNW	14	749041	degorate	0.0	1.0	False
750.191	0.0	1Suff w/o Lat.	12	750191	musical	1.0	0.0	False
751.158	0.0	2Suff w/o Lat.	22	751158	harmlessly	1.0	0.0	False
752.184	0.0	0Suff NW	4	752184	girern	0.0	1.0	False
752.992	0.0	2Suff RealStemNW	25	752992	painively	0.0	1.0	False
753.826	0.0	1Suff w/o Lat.	12	753826	validate	1.0	0.0	False
754.734	0.0	2Suff PseudoStemNW	24	754734	arfulness	0.0	1.0	False
755.868	0.0	2Suff w/o Lat.	22	755868	easily	1.0	0.0	False
756.91	0.0	2Suff PseudoStemNW	24	756910	hodelessness	0.0	1.0	False
757.894	0.0	0Suff NW	4	757894	gloo	0.0	1.0	False
758.861	0.0	2Suff PseudoStemNW	24	758861	hythically	0.0	1.0	False
760.078	0.0	2Suff w/o Lat.	22	760078	polarize	1.0	0.0	False
761.328	0.0	0Suff NW	4	761328	grame	0.0	1.0	False
763.112	0.0	1Suff w/o Lat.	12	763112	orderly	1.0	0.0	False
764.687	0.0	1Suff PseudoStemNW	14	764687	mowthure	0.0	1.0	False
765.621	0.0	2Suff RealStemNW	25	765621	periodally	0.0	1.0	False
766.846	0.0	0Suff w/o Lat.	2	766846	man	1.0	0.0	False
767.822	0.0	2Suff w/o Lat.	22	767822	decisively	1.0	0.0	False
768.997	0.0	1Suff w/o Lat.	12	768997	ritualist	1.0	0.0	False
770.089	0.0	1Suff PseudoStemNW	14	770089	gulbsian	0.0	1.0	False
771.081	0.0	1Suff w/ Lat.	11	771081	mistaken	1.0	0.0	False
771.99	0.0	1Suff w/o Lat.	12	771990	gleeful	1.0	1.0	True
773.115	0.0	2Suff w/o Lat.	22	773115	musically	1.0	0.0	False
774.074	0.0	2Suff RealStemNW	25	774074	editerize	0.0	1.0	False
775.032	0.0	1Suff RealStemNW	15	775032	hopeable	0.0	1.0	False
776.258	0.0	1Suff w/o Lat.	12	776258	materialist	1.0	0.0	False
777.325	0.0	2Suff w/ Lat.	21	777325	conceptualize	1.0	0.0	False
778.475	0.0	0Suff NW	4	778475	eshaums	0.0	1.0	False
779.559	0.0	2Suff w/o Lat.	22	779559	profitably	1.0	0.0	False
780.542	0.0	2Suff Composite	23	780542	vexation	1.0	1.0	True
781.476	0.0	1Suff RealStemNW	15	781476	persistify	0.0	1.0	False
782.86	0.0	2Suff PseudoStemNW	24	782860	uspasionally	0.0	1.0	False
784.385	0.0	1Suff w/o Lat.	12	784385	logical	1.0	0.0	False
785.402	0.0	2Suff PseudoStemNW	24	785402	peadership	0.0	1.0	False
786.486	0.0	2Suff w/o Lat.	22	786486	decisiveness	1.0	0.0	False
787.778	0.0	2Suff RealStemNW	25	787778	persuasfully	0.0	1.0	False
789.045	0.0	2Suff w/o Lat.	22	789045	leaderless	1.0	0.0	False
790.029	0.0	1Suff PseudoStemNW	14	790029	wrotify	0.0	1.0	False
791.137	0.0	0Suff w/o Lat.	2	791137	aim	1.0	0.0	False
792.229	0.0	2Suff w/o Lat.	22	792229	directional	1.0	0.0	False
793.263	0.0	2Suff RealStemNW	25	793263	cheerability	0.0	0.0	True
794.297	0.0	1Suff w/o Lat.	12	794297	partial	1.0	0.0	False
795.288	0.0	2Suff w/o Lat.	22	795288	aimlessly	1.0	0.0	False
796.155	0.0	1Suff w/o Lat.	12	796155	difference	1.0	0.0	False
797.047	0.0	0Suff NW	4	797047	tipe	0.0	1.0	False
798.173	0.0	2Suff w/o Lat.	22	798173	logically	1.0	0.0	False
799.073	0.0	2Suff PseudoStemNW	24	799073	nerbously	0.0	1.0	False
800.148	0.0	1Suff w/o Lat.	12	800148	thankful	1.0	0.0	False
801.082	0.0	2Suff w/o Lat.	22	801082	provocatively	1.0	0.0	False
802.491	0.0	2Suff RealStemNW	25	802491	poetally	0.0	1.0	False
803.516	0.0	1Suff w/o Lat.	12	803516	mythical	1.0	0.0	False
804.533	0.0	2Suff PseudoStemNW	24	804533	inshemmation	0.0	1.0	False
805.492	0.0	1Suff PseudoStemNW	14	805492	awdition	0.0	1.0	False
806.492	0.0	0Suff w/o Lat.	2	806492	guard	1.0	0.0	False
807.534	0.0	2Suff w/o Lat.	22	807534	uselessness	1.0	0.0	False
808.943	0.0	0Suff NW	4	808943	ewsib	0.0	0.0	True
809.86	0.0	2Suff w/o Lat.	22	809860	gleefully	1.0	0.0	False
811.702	0.0	2Suff RealStemNW	25	811702	revitalilessly	0.0	0.0	True
813.727	0.0	1Suff PseudoStemNW	14	813727	falumful	0.0	1.0	False
814.744	0.0	1Suff PseudoStemNW	14	814744	prowertion	0.0	1.0	False
815.711	0.0	2Suff w/o Lat.	22	815711	cheerfulness	1.0	0.0	False
816.745	0.0	0Suff NW	4	816745	fleep	0.0	1.0	False
817.837	0.0	0Suff NW	4	817837	uspasion	0.0	1.0	False
819.396	0.0	2Suff w/o Lat.	22	819396	isolationist	1.0	1.0	True
821.238	0.0	2Suff PseudoStemNW	24	821238	orifadator	0.0	1.0	False
822.263	0.0	2Suff RealStemNW	25	822263	notural	0.0	1.0	False
823.28	0.0	2Suff w/o Lat.	22	823280	rhythmically	1.0	0.0	False
824.673	0.0	0Suff w/o Lat.	2	824673	design	1.0	0.0	False
825.523	0.0	0Suff NW	4	825523	thash	0.0	1.0	False
826.548	0.0	2Suff w/o Lat.	22	826548	friendliness	1.0	0.0	False
827.673	0.0	2Suff PseudoStemNW	24	827673	snoughtfully	0.0	1.0	False
828.782	0.0	0Suff w/o Lat.	2	828782	rhythm	1.0	0.0	False
829.666	0.0	2Suff RealStemNW	25	829666	commutfully	0.0	1.0	False
830.766	0.0	1Suff PseudoStemNW	14	830766	chansotion	0.0	1.0	False
831.691	0.0	0Suff w/o Lat.	2	831691	occasion	1.0	0.0	False
832.775	0.0	0Suff w/o Lat.	2	832775	dead	1.0	0.0	False
834.25	0.0	1Suff PseudoStemNW	14	834250	halkless	0.0	1.0	False
835.342	0.0	0Suff w/o Lat.	2	835342	logic	1.0	0.0	False
836.376	0.0	2Suff RealStemNW	25	836376	seasonical	0.0	n/a	False
838.785	0.0	0Suff NW	4	838785	onnense	0.0	1.0	False
839.877	0.0	1Suff PseudoStemNW	14	839877	fralatic	0.0	1.0	False
840.869	0.0	1Suff w/o Lat.	12	840869	notify	1.0	0.0	False
841.828	0.0	1Suff w/o Lat.	12	841828	reasonable	1.0	0.0	False
842.695	0.0	0Suff NW	4	842695	devesug	0.0	1.0	False
843.678	0.0	0Suff NW	4	843678	instrove	0.0	1.0	False
844.72	0.0	2Suff PseudoStemNW	24	844720	worchlessness	0.0	1.0	False
845.712	0.0	0Suff NW	4	845712	musual	0.0	1.0	False
846.904	0.0	2Suff w/o Lat.	22	846904	childishly	1.0	0.0	False
848.405	0.0	1Suff w/o Lat.	12	848405	friendly	1.0	0.0	False
849.513	0.0	2Suff w/o Lat.	22	849513	forgetfulness	1.0	0.0	False
850.881	0.0	1Suff w/o Lat.	12	850881	architecture	1.0	0.0	False
851.889	0.0	2Suff w/ Lat.	21	851889	subjectivity	1.0	0.0	False
852.998	0.0	2Suff RealStemNW	25	852998	decisfully	0.0	0.0	True
854.14	0.0	1Suff PseudoStemNW	14	854140	uteless	0.0	1.0	False
855.399	0.0	0Suff w/o Lat.	2	855399	lead	1.0	1.0	True
856.199	0.0	1Suff PseudoStemNW	14	856199	nolable	0.0	1.0	False
857.733	0.0	2Suff w/o Lat.	22	857733	speedily	1.0	0.0	False
858.8	0.0	2Suff RealStemNW	25	858800	restiousness	0.0	1.0	False
859.825	0.0	2Suff PseudoStemNW	24	859825	urhanization	0.0	1.0	False
861.359	0.0	0Suff w/o Lat.	2	861359	substance	1.0	0.0	False
862.392	0.0	2Suff w/o Lat.	22	862392	confessional	1.0	0.0	False
863.826	0.0	1Suff w/o Lat.	12	863826	execution	1.0	0.0	False
865.027	0.0	2Suff RealStemNW	25	865027	peaceively	0.0	1.0	False
866.652	0.0	1Suff RealStemNW	15	866652	restable	0.0	1.0	False
868.144	0.0	2Suff PseudoStemNW	24	868144	eltensively	0.0	1.0	False
869.186	0.0	1Suff RealStemNW	15	869186	peaceive	0.0	1.0	False
870.395	0.0	2Suff Composite	23	870395	commutation	1.0	0.0	False
871.87	0.0	1Suff w/o Lat.	12	871870	polar	1.0	0.0	False
872.854	0.0	2Suff RealStemNW	25	872854	musicical	0.0	1.0	False
874.179	0.0	2Suff RealStemNW	25	874179	dramatilessly	0.0	1.0	False
875.446	0.0	0Suff w/o Lat.	2	875446	stealth	1.0	0.0	False
876.463	0.0	2Suff RealStemNW	25	876463	fasticly	0.0	1.0	False
877.405	0.0	2Suff PseudoStemNW	24	877405	chirdishly	0.0	1.0	False
878.506	0.0	0Suff w/o Lat.	2	878506	distinct	1.0	0.0	False
882.257	0.0	2Suff PseudoStemNW	24	882257	stoteldionist	0.0	1.0	False
883.207	0.0	1Suff w/o Lat.	12	883207	addition	1.0	0.0	False
884.041	0.0	1Suff w/o Lat.	12	884041	successful	1.0	0.0	False
884.874	0.0	2Suff PseudoStemNW	24	884874	lenctionally	0.0	1.0	False
885.941	0.0	0Suff w/o Lat.	2	885941	material	1.0	0.0	False
886.842	0.0	1Suff PseudoStemNW	14	886842	restittable	0.0	1.0	False
887.884	0.0	0Suff NW	4	887884	artlitack	0.0	1.0	False
888.842	0.0	1Suff w/o Lat.	12	888842	peaceful	1.0	0.0	False
889.809	0.0	2Suff RealStemNW	25	889809	subjectously	0.0	1.0	False
890.976	0.0	2Suff w/o Lat.	22	890976	familiarize	1.0	0.0	False
892.06	0.0	0Suff w/o Lat.	2	892060	sleep	1.0	0.0	False
893.027	0.0	2Suff w/o Lat.	22	893027	materialistic	1.0	0.0	False
894.027	0.0	2Suff w/o Lat.	22	894027	decorative	1.0	0.0	False
895.486	0.0	2Suff w/o Lat.	22	895486	decorator	1.0	0.0	False
897.136	0.0	1Suff w/ Lat.	11	897136	projection	1.0	0.0	False
898.162	0.0	2Suff PseudoStemNW	24	898162	stitilization	0.0	1.0	False
899.304	0.0	2Suff Composite	23	899304	allegation	1.0	0.0	False
900.321	0.0	2Suff RealStemNW	25	900321	decisishness	0.0	1.0	False
901.338	0.0	2Suff PseudoStemNW	24	901338	gloofully	0.0	1.0	False
903.055	0.0	0Suff NW	4	903055	finiles	0.0	1.0	False
903.955	0.0	0Suff w/o Lat.	2	903955	govern	1.0	0.0	False
905.131	0.0	0Suff NW	4	905131	wead	0.0	1.0	False
906.089	0.0	2Suff RealStemNW	25	906089	considerishly	0.0	1.0	False
907.99	0.0	1Suff RealStemNW	15	907990	designion	0.0	1.0	False
909.415	0.0	2Suff PseudoStemNW	24	909415	banically	0.0	1.0	False
910.432	0.0	2Suff RealStemNW	25	910432	fatalize	0.0	0.0	True
911.774	0.0	2Suff PseudoStemNW	24	911774	cunerogially	0.0	1.0	False
912.7	0.0	0Suff NW	4	912700	devade	0.0	1.0	False
913.717	0.0	2Suff PseudoStemNW	24	913717	carbisalistic	0.0	1.0	False
914.859	0.0	2Suff RealStemNW	25	914859	guiltioner	0.0	1.0	False
916.042	0.0	2Suff w/o Lat.	22	916042	idealistic	1.0	0.0	False
917.268	0.0	0Suff w/o Lat.	2	917268	statistic	1.0	0.0	False
918.476	0.0	0Suff w/ Lat.	1	918476	subject	1.0	0.0	False
919.61	0.0	1Suff w/o Lat.	12	919610	financial	1.0	0.0	False
920.669	0.0	0Suff NW	4	920669	etil	0.0	1.0	False
921.852	0.0	2Suff RealStemNW	25	921852	deadionist	0.0	1.0	False
923.144	0.0	2Suff w/o Lat.	22	923144	mythically	1.0	1.0	True
924.42	0.0	1Suff w/o Lat.	12	924420	basic	1.0	1.0	True
925.495	0.0	2Suff w/o Lat.	22	925495	triumphantly	1.0	1.0	True
926.454	0.0	2Suff RealStemNW	25	926454	quotfully	0.0	1.0	False
927.562	0.0	2Suff PseudoStemNW	24	927562	miccessfully	0.0	1.0	False
928.579	0.0	1Suff PseudoStemNW	14	928579	dehonite	0.0	1.0	False
929.588	0.0	2Suff w/o Lat.	22	929588	relativism	1.0	1.0	True
931.089	0.0	0Suff NW	4	931089	deabon	0.0	1.0	False
932.039	0.0	0Suff w/ Lat.	1	932039	persist	1.0	0.0	False
933.239	0.0	1Suff PseudoStemNW	14	933239	wrotious	0.0	1.0	False
934.131	0.0	2Suff w/o Lat.	22	934131	deadliness	1.0	0.0	False
935.098	0.0	2Suff w/ Lat.	21	935098	predictably	1.0	0.0	False
936.265	0.0	1Suff w/o Lat.	12	936265	easy	1.0	0.0	False
937.174	0.0	0Suff w/ Lat.	1	937174	impress	1.0	0.0	False
938.041	0.0	0Suff w/o Lat.	2	938041	execute	1.0	0.0	False
938.933	0.0	2Suff RealStemNW	25	938933	materialional	0.0	1.0	False
940.291	0.0	1Suff w/o Lat.	12	940291	worthless	1.0	0.0	False
941.192	0.0	0Suff NW	4	941192	headth	0.0	1.0	False
942.209	0.0	1Suff w/o Lat.	12	942209	confession	1.0	0.0	False
943.192	0.0	0Suff w/o Lat.	2	943192	protect	1.0	0.0	False
944.201	0.0	1Suff w/o Lat.	12	944201	trivial	1.0	0.0	False
945.11	0.0	2Suff w/o Lat.	22	945110	periodical	1.0	0.0	False
946.26	0.0	0Suff NW	4	946260	avold	0.0	0.0	True
947.219	0.0	0Suff w/o Lat.	2	947219	finance	1.0	0.0	False
948.202	0.0	1Suff w/o Lat.	12	948202	profitable	1.0	0.0	False
949.611	0.0	2Suff PseudoStemNW	24	949611	chotintically	0.0	1.0	False
950.961	0.0	2Suff RealStemNW	25	950961	harmiously	0.0	1.0	False
952.07	0.0	1Suff w/o Lat.	12	952070	forgetful	1.0	0.0	False
953.054	0.0	1Suff PseudoStemNW	14	953054	uspasional	0.0	1.0	False
954.046	0.0	2Suff RealStemNW	25	954046	orderionist	0.0	1.0	False
955.104	0.0	2Suff Composite	23	955104	corporation	1.0	0.0	False
956.305	0.0	0Suff w/o Lat.	2	956305	out	1.0	0.0	False
957.33	0.0	0Suff NW	4	957330	hode	0.0	1.0	False
958.305	0.0	0Suff NW	4	958305	peece	0.0	1.0	False
959.322	0.0	1Suff w/o Lat.	12	959322	sleepy	1.0	0.0	False
960.314	0.0	2Suff RealStemNW	25	960314	immunability	0.0	0.0	True
961.481	0.0	1Suff w/o Lat.	12	961481	graceful	1.0	0.0	False
962.39	0.0	1Suff RealStemNW	15	962390	gleeive	0.0	1.0	False
963.399	0.0	0Suff NW	4	963399	sushect	0.0	1.0	False
964.382	0.0	2Suff Composite	23	964382	confederation	1.0	1.0	True
965.366	0.0	2Suff Composite	23	965366	inflammation	1.0	0.0	False
966.499	0.0	2Suff PseudoStemNW	24	966499	rerational	0.0	1.0	False
967.541	0.0	1Suff PseudoStemNW	14	967541	thiendly	0.0	1.0	False
968.817	0.0	1Suff RealStemNW	15	968817	polit	0.0	1.0	False
969.759	0.0	1Suff w/ Lat.	11	969759	instruction	1.0	0.0	False
970.767	0.0	1Suff w/o Lat.	12	970767	relation	1.0	0.0	False
971.709	0.0	1Suff w/o Lat.	12	971709	rhythmic	1.0	0.0	False
972.585	0.0	2Suff w/o Lat.	22	972585	globally	1.0	0.0	False
973.535	0.0	0Suff w/ Lat.	1	973535	progress	1.0	0.0	False
974.402	0.0	0Suff w/o Lat.	2	974402	direct	1.0	0.0	False
975.194	0.0	2Suff w/o Lat.	22	975194	designation	1.0	0.0	False
976.661	0.0	2Suff Composite	23	976661	militarization	1.0	0.0	False
978.178	0.0	1Suff w/o Lat.	12	978178	government	1.0	0.0	False
979.178	0.0	0Suff w/o Lat.	2	979178	ease	1.0	0.0	False
980.062	0.0	2Suff w/o Lat.	22	980062	isolationism	1.0	0.0	False
981.838	0.0	0Suff NW	4	981838	concoler	0.0	1.0	False
983.563	0.0	1Suff RealStemNW	15	983563	intensful	0.0	0.0	True
984.888	0.0	0Suff NW	4	984888	glibe	0.0	1.0	False
985.88	0.0	1Suff PseudoStemNW	14	985880	rhylphic	0.0	1.0	False
986.956	0.0	0Suff NW	4	986956	reut	0.0	1.0	False
987.939	0.0	1Suff w/o Lat.	12	987939	functional	1.0	0.0	False
988.94	0.0	1Suff PseudoStemNW	14	988940	eetward	0.0	1.0	False
989.865	0.0	0Suff NW	4	989865	attossin	0.0	1.0	False
990.724	0.0	0Suff w/o Lat.	2	990724	transit	1.0	0.0	False
991.757	0.0	0Suff w/o Lat.	2	991757	mobile	1.0	0.0	False
992.674	0.0	2Suff w/o Lat.	22	992674	ceremonially	1.0	1.0	True
993.716	0.0	1Suff w/o Lat.	12	993716	idealize	1.0	0.0	False
994.733	0.0	1Suff PseudoStemNW	14	994733	betiecable	0.0	1.0	False
995.65	0.0	0Suff NW	4	995650	nole	0.0	1.0	False
996.817	0.0	0Suff NW	4	996817	eet	0.0	1.0	False
997.642	0.0	1Suff w/o Lat.	12	997642	immunize	1.0	1.0	True
999.009	0.0	1Suff w/o Lat.	12	999009	ethical	1.0	0.0	False
1000.01	0.0	2Suff w/o Lat.	22	1000010	faithfully	1.0	0.0	False
1001.002	0.0	1Suff RealStemNW	15	1001002	wakeive	0.0	1.0	False
1001.935	0.0	1Suff w/o Lat.	12	1001935	periodic	1.0	0.0	False
1003.336	0.0	1Suff RealStemNW	15	1003336	childory	0.0	1.0	False
1004.403	0.0	0Suff NW	4	1004403	hyth	0.0	1.0	False
1005.361	0.0	2Suff PseudoStemNW	24	1005361	paftiality	0.0	1.0	False
1006.253	0.0	2Suff RealStemNW	25	1006253	friendionist	0.0	1.0	False
1007.37	0.0	2Suff PseudoStemNW	24	1007370	desalkation	0.0	1.0	False
1008.229	0.0	0Suff NW	4	1008229	pask	0.0	1.0	False
1009.771	0.0	1Suff RealStemNW	15	1009771	delightive	0.0	1.0	False
1010.613	0.0	2Suff PseudoStemNW	24	1010613	deabonably	0.0	1.0	False
1025.368	0.0	1Suff w/o Lat.	12	1025368	different	1.0	0.0	False
1026.301	0.0	1Suff w/o Lat.	12	1026301	occasional	1.0	0.0	False
1027.293	0.0	1Suff RealStemNW	15	1027293	extensful	0.0	1.0	False
1028.61	0.0	1Suff w/o Lat.	12	1028610	triumphant	1.0	0.0	False
1029.852	0.0	1Suff w/o Lat.	12	1029852	considerable	1.0	0.0	False
1030.994	0.0	2Suff PseudoStemNW	24	1030994	falality	0.0	1.0	False
1032.611	0.0	0Suff w/o Lat.	2	1032611	origin	1.0	0.0	False
1033.462	0.0	2Suff w/ Lat.	21	1033462	instructional	1.0	0.0	False
1034.712	0.0	1Suff RealStemNW	15	1034712	differious	0.0	1.0	False
1035.812	0.0	2Suff PseudoStemNW	24	1035812	otification	0.0	1.0	False
1036.879	0.0	2Suff w/o Lat.	22	1036879	fatality	1.0	0.0	False
1038.138	0.0	0Suff w/o Lat.	2	1038138	moist	1.0	0.0	False
1039.113	0.0	1Suff PseudoStemNW	14	1039113	prebitable	0.0	1.0	False
1040.33	0.0	1Suff PseudoStemNW	14	1040330	girernment	0.0	1.0	False
1041.306	0.0	2Suff w/o Lat.	22	1041306	adaptability	1.0	0.0	False
1042.389	0.0	1Suff w/o Lat.	12	1042389	guilty	1.0	0.0	False
1043.815	0.0	0Suff w/o Lat.	2	1043815	rest	1.0	0.0	False
1044.757	0.0	1Suff w/o Lat.	12	1044757	healthy	1.0	0.0	False
1045.624	0.0	1Suff w/o Lat.	12	1045624	statistical	1.0	0.0	False
1046.741	0.0	0Suff NW	4	1046741	goult	0.0	1.0	False
1047.658	0.0	2Suff RealStemNW	25	1047658	exhaustfully	0.0	0.0	True
1048.541	0.0	2Suff RealStemNW	25	1048541	leadantate	0.0	1.0	False
1049.558	0.0	1Suff w/o Lat.	12	1049558	competitive	1.0	0.0	False
1050.617	0.0	0Suff NW	4	1050617	exufant	0.0	1.0	False
1051.626	0.0	2Suff PseudoStemNW	24	1051626	chirdishness	0.0	1.0	False
1052.659	0.0	2Suff w/o Lat.	22	1052659	realistic	1.0	0.0	False
1053.685	0.0	1Suff RealStemNW	15	1053685	nervate	0.0	1.0	False
1054.535	0.0	0Suff w/o Lat.	2	1054535	base	1.0	0.0	False
1055.535	0.0	2Suff RealStemNW	25	1055535	categorally	0.0	1.0	False
1057.052	0.0	2Suff w/o Lat.	22	1057052	differentiate	1.0	0.0	False
1058.353	0.0	1Suff w/o Lat.	12	1058353	protection	1.0	0.0	False
1059.42	0.0	2Suff w/ Lat.	21	1059420	conceptually	1.0	0.0	False
1060.687	0.0	1Suff PseudoStemNW	14	1060687	goulty	0.0	1.0	False
1061.804	0.0	0Suff NW	4	1061804	prowert	0.0	1.0	False
1062.787	0.0	2Suff w/o Lat.	22	1062787	executioner	1.0	1.0	True
1063.663	0.0	0Suff w/o Lat.	2	1063663	ethic	1.0	1.0	True
1064.596	0.0	0Suff w/o Lat.	2	1064596	triumph	1.0	0.0	False
1065.855	0.0	2Suff PseudoStemNW	24	1065855	degorative	0.0	1.0	False
1067.072	0.0	2Suff w/o Lat.	22	1067072	peacefully	1.0	0.0	False
1067.989	0.0	2Suff PseudoStemNW	24	1067989	chierfully	0.0	1.0	False
1068.939	0.0	0Suff NW	4	1068939	coppent	0.0	1.0	False
1069.831	0.0	0Suff NW	4	1069831	eltene	0.0	1.0	False
1070.748	0.0	0Suff NW	4	1070748	falget	0.0	1.0	False
1071.648	0.0	1Suff w/ Lat.	11	1071648	exhibition	1.0	0.0	False
1072.632	0.0	2Suff w/o Lat.	22	1072632	hopefully	1.0	0.0	False
1073.541	0.0	0Suff NW	4	1073541	mistile	0.0	1.0	False
1074.466	0.0	2Suff Composite	23	1074466	autistic	1.0	0.0	False
1076.2	0.0	2Suff PseudoStemNW	24	1076200	awditional	0.0	1.0	False
1077.209	0.0	2Suff w/o Lat.	22	1077209	magnetically	1.0	1.0	True
1078.592	0.0	0Suff NW	4	1078592	wroty	0.0	1.0	False
1079.501	0.0	0Suff w/o Lat.	2	1079501	period	1.0	0.0	False
1080.535	0.0	1Suff w/o Lat.	12	1080535	soulful	1.0	0.0	False
1081.968	0.0	1Suff w/o Lat.	12	1081968	deadly	1.0	0.0	False
1082.794	0.0	2Suff w/o Lat.	22	1082794	relatively	1.0	0.0	False
1083.761	0.0	0Suff NW	4	1083761	manhet	0.0	1.0	False
1084.803	0.0	2Suff w/o Lat.	22	1084803	thoughtfully	1.0	0.0	False
1085.753	0.0	1Suff w/o Lat.	12	1085753	dramatic	1.0	0.0	False
1087.003	0.0	2Suff Composite	23	1087003	dramatization	1.0	1.0	True
1088.262	0.0	0Suff NW	4	1088262	isotent	0.0	1.0	False
1089.329	0.0	2Suff RealStemNW	25	1089329	easery	0.0	1.0	False
1090.313	0.0	0Suff w/o Lat.	2	1090313	fast	1.0	1.0	True
1091.138	0.0	2Suff w/o Lat.	22	1091138	guardianship	1.0	0.0	False
1092.738	0.0	0Suff NW	4	1092738	urmer	0.0	1.0	False
1093.714	0.0	2Suff w/o Lat.	22	1093714	basically	1.0	0.0	False
1094.597	0.0	0Suff w/o Lat.	2	1094597	time	1.0	0.0	False
1095.723	0.0	2Suff RealStemNW	25	1095723	relatifiable	0.0	1.0	False
1097.34	0.0	1Suff PseudoStemNW	14	1097340	sushective	0.0	1.0	False
1098.215	0.0	0Suff w/o Lat.	2	1098215	worth	1.0	0.0	False
1099.64	0.0	2Suff w/o Lat.	22	1099640	worthlessness	1.0	0.0	False
1100.782	0.0	2Suff w/o Lat.	22	1100782	fastener	1.0	0.0	False
1102.466	0.0	2Suff w/o Lat.	22	1102466	financially	1.0	0.0	False
1103.408	0.0	0Suff NW	4	1103408	pipsist	0.0	1.0	False
1104.934	0.0	1Suff PseudoStemNW	14	1104934	thashful	0.0	1.0	False
1106.067	0.0	1Suff RealStemNW	15	1106067	relatful	0.0	1.0	False
1107.176	0.0	1Suff PseudoStemNW	14	1107176	concolerable	0.0	1.0	False
1108.235	0.0	2Suff RealStemNW	25	1108235	glorifilessly	0.0	1.0	False
1110.002	0.0	0Suff w/o Lat.	2	1110002	music	1.0	0.0	False
1110.794	0.0	1Suff PseudoStemNW	14	1110794	sorken	0.0	1.0	False
1111.644	0.0	2Suff RealStemNW	25	1111644	graceively	0.0	1.0	False
1112.894	0.0	0Suff NW	4	1112894	pavediad	0.0	1.0	False
1113.861	0.0	0Suff NW	4	1113861	ute	0.0	1.0	False
1114.595	0.0	2Suff Composite	23	1114595	cannibalistic	1.0	0.0	False
1115.954	0.0	2Suff PseudoStemNW	24	1115954	falumfilly	0.0	1.0	False
1116.821	0.0	1Suff w/o Lat.	12	1116821	fasten	1.0	0.0	False
1118.021	0.0	0Suff NW	4	1118021	detisms	0.0	1.0	False
1118.871	0.0	2Suff w/o Lat.	22	1118871	relationship	1.0	0.0	False
1119.997	0.0	0Suff w/o Lat.	2	1119997	ritual	1.0	0.0	False
1121.089	0.0	2Suff PseudoStemNW	24	1121089	orifadally	0.0	1.0	False
1122.047	0.0	0Suff w/o Lat.	2	1122047	add	1.0	0.0	False
1122.839	0.0	2Suff PseudoStemNW	24	1122839	artlitackural	0.0	1.0	False
1123.798	0.0	2Suff w/o Lat.	22	1123798	considerately	1.0	0.0	False
1124.773	0.0	1Suff w/o Lat.	12	1124773	gracious	1.0	0.0	False
1125.698	0.0	0Suff NW	4	1125698	worch	0.0	1.0	False
1126.682	0.0	2Suff PseudoStemNW	24	1126682	steadthily	0.0	0.0	True
1128.149	0.0	2Suff RealStemNW	25	1128149	fatantly	0.0	0.0	True
1129.258	0.0	2Suff PseudoStemNW	24	1129258	stumiality	0.0	1.0	False
1130.35	0.0	2Suff RealStemNW	25	1130350	satirally	0.0	0.0	True
1131.892	0.0	2Suff w/o Lat.	22	1131892	competitively	1.0	0.0	False
1132.984	0.0	1Suff w/o Lat.	12	1132984	believable	1.0	0.0	False
1133.959	0.0	0Suff w/o Lat.	2	1133959	order	1.0	0.0	False
1134.818	0.0	2Suff RealStemNW	25	1134818	differalism	0.0	1.0	False
1135.918	0.0	1Suff PseudoStemNW	14	1135918	headthy	0.0	1.0	False
1137.094	0.0	2Suff PseudoStemNW	24	1137094	ictressionism	0.0	1.0	False
1138.561	0.0	1Suff w/o Lat.	12	1138561	decorate	1.0	0.0	False
1139.878	0.0	0Suff w/o Lat.	2	1139878	fright	1.0	0.0	False
1140.878	0.0	2Suff PseudoStemNW	24	1140878	headthily	0.0	1.0	False
1142.003	0.0	0Suff w/o Lat.	2	1142003	intense	1.0	0.0	False
1142.995	0.0	1Suff PseudoStemNW	14	1142995	imoatist	0.0	1.0	False
1143.979	0.0	2Suff PseudoStemNW	24	1143979	rhylphically	0.0	1.0	False
