onset	duration	trial_type	value	sample	stimulus	is_word	response	correct
26.135	0.0	1Suff RealStemNW	15	26135	polit	0.0	1.0	False
27.493	0.0	2Suff PseudoStemNW	24	27493	pafleurization	0.0	1.0	False
28.577	0.0	2Suff w/o Lat.	22	28577	faithfully	1.0	0.0	False
29.544	0.0	2Suff PseudoStemNW	24	29544	instrovtional	0.0	1.0	False
30.461	0.0	0Suff w/o Lat.	2	30461	grace	1.0	0.0	False
31.428	0.0	0Suff w/o Lat.	2	31428	design	1.0	0.0	False
32.387	0.0	2Suff PseudoStemNW	24	32387	segnonistic	0.0	1.0	False
33.287	0.0	1Suff w/o Lat.	12	33287	ritualist	1.0	0.0	False
34.212	0.0	2Suff RealStemNW	25	34212	characterional	0.0	1.0	False
35.271	0.0	0Suff w/o Lat.	2	35271	man	1.0	0.0	False
36.188	0.0	1Suff w/o Lat.	12	36188	protection	1.0	0.0	False
37.171	0.0	2Suff PseudoStemNW	24	37171	worchlessness	0.0	1.0	False
38.13	0.0	0Suff NW	4	38130	etil	0.0	1.0	False
39.014	0.0	2Suff w/o Lat.	22	39014	delightfully	1.0	0.0	False
39.981	0.0	0Suff w/o Lat.	2	39981	part	1.0	0.0	False
40.964	0.0	2Suff Composite	23	40964	mechanistic	1.0	0.0	False
42.531	0.0	2Suff PseudoStemNW	24	42531	paftiality	0.0	1.0	False
43.532	0.0	2Suff PseudoStemNW	24	43532	perburbation	0.0	1.0	False
44.615	0.0	1Suff w/o Lat.	12	44615	essential	1.0	0.0	False
45.641	0.0	1Suff w/o Lat.	12	45641	soulful	1.0	1.0	True
47.341	0.0	2Suff w/ Lat.	21	47341	exhibitionism	1.0	0.0	False
48.558	0.0	0Suff w/ Lat.	1	48558	progress	1.0	0.0	False
49.459	0.0	1Suff w/ Lat.	11	49459	persistent	1.0	0.0	False
50.417	0.0	1Suff RealStemNW	15	50417	restable	0.0	1.0	False
51.484	0.0	2Suff RealStemNW	25	51484	ritualional	0.0	1.0	False
52.685	0.0	2Suff w/o Lat.	22	52685	manliness	1.0	0.0	False
53.685	0.0	1Suff RealStemNW	15	53685	isolatate	0.0	1.0	False
54.919	0.0	1Suff w/o Lat.	12	54919	originate	1.0	0.0	False
56.111	0.0	0Suff NW	4	56111	gulbs	0.0	1.0	False
57.119	0.0	0Suff NW	4	57119	avold	0.0	1.0	False
58.228	0.0	2Suff w/o Lat.	22	58228	intensively	1.0	0.0	False
59.32	0.0	2Suff PseudoStemNW	24	59320	dehonitive	0.0	1.0	False
60.278	0.0	2Suff PseudoStemNW	24	60278	snightfully	0.0	1.0	False
61.295	0.0	2Suff PseudoStemNW	24	61295	hodelessness	0.0	1.0	False
62.262	0.0	1Suff PseudoStemNW	14	62262	uteless	0.0	1.0	False
63.196	0.0	0Suff NW	4	63196	rumic	0.0	1.0	False
64.055	0.0	0Suff NW	4	64055	reut	0.0	1.0	False
64.905	0.0	1Suff RealStemNW	15	64905	deadic	0.0	1.0	False
65.789	0.0	2Suff Composite	23	65789	canonical	1.0	0.0	False
67.522	0.0	2Suff PseudoStemNW	24	67522	avoldability	0.0	1.0	False
68.681	0.0	2Suff PseudoStemNW	24	68681	vimidation	0.0	1.0	False
69.923	0.0	0Suff NW	4	69923	stitile	0.0	1.0	False
70.84	0.0	1Suff RealStemNW	15	70840	basly	0.0	1.0	False
71.757	0.0	0Suff NW	4	71757	sork	0.0	1.0	False
72.666	0.0	2Suff PseudoStemNW	24	72666	stumialize	0.0	1.0	False
73.608	0.0	2Suff w/o Lat.	22	73608	fastener	1.0	0.0	False
74.791	0.0	0Suff NW	4	74791	figic	0.0	1.0	False
75.758	0.0	2Suff RealStemNW	25	75758	guiltioner	0.0	1.0	False
76.767	0.0	2Suff RealStemNW	25	76767	executarity	0.0	1.0	False
77.909	0.0	0Suff w/o Lat.	2	77909	immune	1.0	0.0	False
79.026	0.0	0Suff NW	4	79026	isotent	0.0	1.0	False
80.051	0.0	2Suff w/o Lat.	22	80051	considerably	1.0	0.0	False
81.702	0.0	1Suff RealStemNW	15	81702	protectate	0.0	1.0	False
83.777	0.0	2Suff w/o Lat.	22	83777	successfully	1.0	0.0	False
85.078	0.0	1Suff w/o Lat.	12	85078	relative	1.0	0.0	False
86.27	0.0	1Suff w/o Lat.	12	86270	substantial	1.0	0.0	False
87.245	0.0	0Suff NW	4	87245	prowert	0.0	1.0	False
88.204	0.0	2Suff RealStemNW	25	88204	decorural	0.0	1.0	False
89.312	0.0	0Suff NW	4	89312	arx	0.0	1.0	False
90.163	0.0	1Suff w/o Lat.	12	90163	isolation	1.0	0.0	False
91.155	0.0	2Suff PseudoStemNW	24	91155	vefation	0.0	1.0	False
92.155	0.0	2Suff w/o Lat.	22	92155	distinctively	1.0	0.0	False
93.514	0.0	2Suff RealStemNW	25	93514	impressliness	0.0	1.0	False
94.772	0.0	1Suff RealStemNW	15	94772	heroal	0.0	1.0	False
95.748	0.0	1Suff w/o Lat.	12	95748	ceremonial	1.0	0.0	False
96.823	0.0	1Suff w/o Lat.	12	96823	partial	1.0	0.0	False
98.015	0.0	2Suff w/o Lat.	22	98015	speedily	1.0	0.0	False
99.182	0.0	1Suff PseudoStemNW	14	99182	eseretion	0.0	1.0	False
100.299	0.0	1Suff PseudoStemNW	14	100299	grameful	0.0	1.0	False
101.299	0.0	0Suff NW	4	101299	distawks	0.0	1.0	False
102.3	0.0	2Suff PseudoStemNW	24	102300	peadership	0.0	1.0	False
103.333	0.0	1Suff w/ Lat.	11	103333	impression	1.0	0.0	False
104.509	0.0	1Suff RealStemNW	15	104509	competitful	0.0	1.0	False
105.576	0.0	2Suff w/o Lat.	22	105576	thoughtfully	1.0	0.0	False
106.618	0.0	1Suff PseudoStemNW	14	106618	thiendly	0.0	1.0	False
107.593	0.0	2Suff RealStemNW	25	107593	moistantly	0.0	1.0	False
108.718	0.0	0Suff NW	4	108718	onnense	0.0	1.0	False
109.685	0.0	0Suff NW	4	109685	manfin	0.0	1.0	False
110.636	0.0	1Suff PseudoStemNW	14	110636	falumful	0.0	1.0	False
111.553	0.0	0Suff w/o Lat.	2	111553	provoke	1.0	0.0	False
112.611	0.0	2Suff w/o Lat.	22	112611	decisively	1.0	0.0	False
113.795	0.0	2Suff RealStemNW	25	113795	quotfully	0.0	1.0	False
114.779	0.0	2Suff w/o Lat.	22	114779	aimlessly	1.0	0.0	False
115.929	0.0	2Suff RealStemNW	25	115929	materialional	0.0	1.0	False
117.163	0.0	2Suff PseudoStemNW	24	117163	hythically	0.0	1.0	False
118.196	0.0	1Suff PseudoStemNW	14	118196	prebitable	0.0	1.0	False
119.13	0.0	2Suff RealStemNW	25	119130	persuasfully	0.0	1.0	False
120.097	0.0	1Suff RealStemNW	15	120097	ritualify	0.0	1.0	False
121.114	0.0	1Suff RealStemNW	15	121114	furance	0.0	1.0	False
121.972	0.0	2Suff PseudoStemNW	24	121972	pasklessly	0.0	1.0	False
122.898	0.0	2Suff w/o Lat.	22	122898	outwardly	1.0	1.0	True
123.815	0.0	2Suff Composite	23	123815	utilization	1.0	0.0	False
125.282	0.0	0Suff NW	4	125282	worch	0.0	1.0	False
126.491	0.0	1Suff w/o Lat.	12	126491	fasten	1.0	0.0	False
127.524	0.0	2Suff w/o Lat.	22	127524	adaptability	1.0	0.0	False
128.591	0.0	2Suff PseudoStemNW	24	128591	desalkation	0.0	1.0	False
129.533	0.0	0Suff w/o Lat.	2	129533	origin	1.0	0.0	False
130.45	0.0	2Suff PseudoStemNW	24	130450	pipplification	0.0	1.0	False
131.384	0.0	0Suff NW	4	131384	affaid	0.0	1.0	False
132.284	0.0	1Suff PseudoStemNW	14	132284	coppentate	0.0	1.0	False
133.168	0.0	1Suff w/o Lat.	12	133168	commentate	1.0	0.0	False
134.51	0.0	1Suff RealStemNW	15	134510	persistify	0.0	1.0	False
135.66	0.0	2Suff Composite	23	135660	vitalization	1.0	0.0	False
136.835	0.0	0Suff w/o Lat.	2	136835	base	1.0	0.0	False
137.936	0.0	2Suff PseudoStemNW	24	137936	analkability	0.0	1.0	False
138.961	0.0	2Suff w/o Lat.	22	138961	ritualistic	1.0	0.0	False
140.02	0.0	1Suff RealStemNW	15	140020	delightive	0.0	1.0	False
141.195	0.0	1Suff w/o Lat.	12	141195	notable	1.0	0.0	False
142.412	0.0	2Suff w/o Lat.	22	142412	globally	1.0	0.0	False
143.529	0.0	2Suff PseudoStemNW	24	143529	rerativity	0.0	1.0	False
144.688	0.0	1Suff w/ Lat.	11	144688	affection	1.0	0.0	False
145.796	0.0	2Suff w/o Lat.	22	145796	occasionally	1.0	0.0	False
147.022	0.0	1Suff w/o Lat.	12	147022	idealist	1.0	0.0	False
148.039	0.0	2Suff PseudoStemNW	24	148039	hodelessly	0.0	1.0	False
149.089	0.0	1Suff RealStemNW	15	149089	soulive	0.0	1.0	False
150.198	0.0	1Suff RealStemNW	15	150198	mistaker	0.0	1.0	False
151.882	0.0	1Suff w/o Lat.	12	151882	triumphant	1.0	0.0	False
153.065	0.0	0Suff w/o Lat.	2	153065	sleep	1.0	0.0	False
154.249	0.0	1Suff RealStemNW	15	154249	gleeive	0.0	1.0	False
157.683	0.0	0Suff NW	4	157683	chotintic	0.0	1.0	False
158.692	0.0	1Suff w/o Lat.	12	158692	mobilize	1.0	0.0	False
159.642	0.0	1Suff w/o Lat.	12	159642	worthless	1.0	0.0	False
160.543	0.0	1Suff w/o Lat.	12	160543	magnetic	1.0	0.0	False
161.468	0.0	2Suff PseudoStemNW	24	161468	steadthily	0.0	1.0	False
162.418	0.0	2Suff RealStemNW	25	162418	affirmatfully	0.0	1.0	False
163.419	0.0	1Suff w/o Lat.	12	163419	intensive	1.0	0.0	False
164.369	0.0	0Suff NW	4	164369	ais	0.0	1.0	False
165.244	0.0	2Suff w/o Lat.	22	165244	mythically	1.0	0.0	False
166.344	0.0	2Suff PseudoStemNW	24	166344	prebitably	0.0	1.0	False
167.37	0.0	2Suff PseudoStemNW	24	167370	stitilization	0.0	1.0	False
168.487	0.0	1Suff w/o Lat.	12	168487	guilty	1.0	0.0	False
169.387	0.0	2Suff w/o Lat.	22	169387	financially	1.0	0.0	False
170.404	0.0	2Suff PseudoStemNW	24	170404	figically	0.0	1.0	False
171.371	0.0	1Suff w/o Lat.	12	171371	familiar	1.0	0.0	False
172.346	0.0	0Suff w/o Lat.	2	172346	architect	1.0	0.0	False
173.363	0.0	2Suff Composite	23	173363	perturbation	1.0	0.0	False
174.83	0.0	2Suff RealStemNW	25	174830	leadantate	0.0	1.0	False
175.781	0.0	1Suff RealStemNW	15	175781	gracance	0.0	1.0	False
176.773	0.0	2Suff PseudoStemNW	24	176773	arfulness	0.0	1.0	False
177.698	0.0	2Suff PseudoStemNW	24	177698	squasification	0.0	1.0	False
178.757	0.0	2Suff w/o Lat.	22	178757	relationship	1.0	0.0	False
179.707	0.0	2Suff RealStemNW	25	179707	deadionist	0.0	1.0	False
180.757	0.0	2Suff RealStemNW	25	180757	fasticly	0.0	1.0	False
181.707	0.0	2Suff w/o Lat.	22	181707	easily	1.0	0.0	False
182.866	0.0	0Suff w/o Lat.	2	182866	ritual	1.0	0.0	False
184.0	0.0	1Suff w/o Lat.	12	184000	speedy	1.0	0.0	False
185.217	0.0	0Suff NW	4	185217	ute	0.0	1.0	False
186.434	0.0	0Suff w/o Lat.	2	186434	fast	1.0	0.0	False
187.418	0.0	0Suff NW	4	187418	betiece	0.0	1.0	False
188.343	0.0	1Suff PseudoStemNW	14	188343	vimidate	0.0	1.0	False
189.326	0.0	0Suff NW	4	189326	wroty	0.0	1.0	False
190.202	0.0	2Suff RealStemNW	25	190202	notural	0.0	1.0	False
191.06	0.0	1Suff PseudoStemNW	14	191060	degorate	0.0	1.0	False
191.927	0.0	1Suff RealStemNW	15	191927	directar	0.0	1.0	False
192.761	0.0	0Suff NW	4	192761	cossete	0.0	1.0	False
193.686	0.0	0Suff w/o Lat.	2	193686	harm	1.0	0.0	False
194.586	0.0	0Suff NW	4	194586	han	0.0	1.0	False
195.578	0.0	1Suff w/o Lat.	12	195578	easy	1.0	0.0	False
196.529	0.0	2Suff RealStemNW	25	196529	revitalilessly	0.0	1.0	False
197.862	0.0	2Suff w/o Lat.	22	197862	assassination	1.0	0.0	False
198.996	0.0	1Suff w/o Lat.	12	198996	polar	1.0	0.0	False
200.03	0.0	0Suff w/o Lat.	2	200030	differ	1.0	0.0	False
201.013	0.0	1Suff w/o Lat.	12	201013	provocative	1.0	0.0	False
202.047	0.0	1Suff PseudoStemNW	14	202047	urmerly	0.0	1.0	False
203.106	0.0	0Suff w/o Lat.	2	203106	statistic	1.0	0.0	False
204.314	0.0	2Suff PseudoStemNW	24	204314	eetwardly	0.0	1.0	False
205.298	0.0	2Suff PseudoStemNW	24	205298	prodfessively	0.0	1.0	False
206.24	0.0	1Suff w/o Lat.	12	206240	awful	1.0	0.0	False
207.224	0.0	0Suff NW	4	207224	fleep	0.0	1.0	False
208.199	0.0	2Suff Composite	23	208199	inflammation	1.0	0.0	False
209.449	0.0	0Suff NW	4	209449	pipsist	0.0	1.0	False
210.408	0.0	1Suff w/o Lat.	12	210408	confession	1.0	0.0	False
211.483	0.0	2Suff RealStemNW	25	211483	notifilessly	0.0	1.0	False
212.409	0.0	2Suff Composite	23	212409	corporation	1.0	0.0	False
213.492	0.0	0Suff w/o Lat.	2	213492	material	1.0	0.0	False
214.526	0.0	2Suff w/o Lat.	22	214526	executioner	1.0	0.0	False
215.485	0.0	0Suff w/ Lat.	1	215485	predict	1.0	0.0	False
216.368	0.0	0Suff w/o Lat.	2	216368	persuade	1.0	0.0	False
217.285	0.0	0Suff w/o Lat.	2	217285	hero	1.0	0.0	False
218.102	0.0	2Suff RealStemNW	25	218102	soulively	0.0	1.0	False
219.027	0.0	0Suff NW	4	219027	prodfess	0.0	1.0	False
220.011	0.0	2Suff PseudoStemNW	24	220011	rhylphically	0.0	1.0	False
220.911	0.0	2Suff PseudoStemNW	24	220911	pafferential	0.0	1.0	False
221.803	0.0	2Suff w/o Lat.	22	221803	competitively	1.0	0.0	False
222.995	0.0	2Suff w/o Lat.	22	222995	rhythmically	1.0	0.0	False
224.121	0.0	1Suff w/o Lat.	12	224121	considerable	1.0	0.0	False
225.663	0.0	2Suff PseudoStemNW	24	225663	uspasionally	0.0	1.0	False
226.663	0.0	1Suff w/o Lat.	12	226663	seasonal	1.0	0.0	False
227.68	0.0	2Suff w/ Lat.	21	227680	impressionist	1.0	0.0	False
228.789	0.0	2Suff RealStemNW	25	228789	isolatliness	0.0	1.0	False
229.931	0.0	0Suff NW	4	229931	paft	0.0	1.0	False
230.831	0.0	2Suff w/o Lat.	22	230831	architectural	1.0	0.0	False
231.881	0.0	2Suff RealStemNW	25	231881	decisfully	0.0	1.0	False
233.198	0.0	2Suff w/o Lat.	22	233198	thickener	1.0	0.0	False
234.515	0.0	1Suff RealStemNW	15	234515	eany	0.0	1.0	False
235.449	0.0	2Suff Composite	23	235449	categorical	1.0	0.0	False
236.424	0.0	2Suff PseudoStemNW	24	236424	adstification	0.0	1.0	False
237.341	0.0	0Suff NW	4	237341	meabon	0.0	1.0	False
238.233	0.0	1Suff w/o Lat.	12	238233	graceful	1.0	0.0	False
239.25	0.0	0Suff w/o Lat.	2	239250	mobile	1.0	0.0	False
240.134	0.0	2Suff RealStemNW	25	240134	polioner	0.0	1.0	False
241.101	0.0	1Suff w/o Lat.	12	241101	childish	1.0	0.0	False
242.101	0.0	0Suff w/o Lat.	2	242101	faith	1.0	0.0	False
243.068	0.0	1Suff w/o Lat.	12	243068	notify	1.0	0.0	False
244.01	0.0	2Suff RealStemNW	25	244010	assassinfully	0.0	1.0	False
245.369	0.0	2Suff w/o Lat.	22	245369	exhaustively	1.0	0.0	False
246.928	0.0	2Suff RealStemNW	25	246928	sleepery	0.0	1.0	False
248.136	0.0	2Suff w/o Lat.	22	248136	moisturize	1.0	0.0	False
249.178	0.0	2Suff Composite	23	249178	affectation	1.0	1.0	True
250.229	0.0	2Suff PseudoStemNW	24	250229	ictressionism	0.0	1.0	False
251.329	0.0	2Suff w/o Lat.	22	251329	poetical	1.0	1.0	True
253.546	0.0	1Suff w/ Lat.	11	253546	exhibition	1.0	0.0	False
254.53	0.0	2Suff RealStemNW	25	254530	guardifiance	0.0	1.0	False
255.589	0.0	2Suff PseudoStemNW	24	255589	utelessness	0.0	1.0	False
256.722	0.0	0Suff NW	4	256722	subplence	0.0	1.0	False
257.647	0.0	0Suff NW	4	257647	musual	0.0	1.0	False
258.523	0.0	1Suff w/o Lat.	12	258523	validate	1.0	0.0	False
259.64	0.0	0Suff w/o Lat.	2	259640	add	1.0	0.0	False
260.532	0.0	0Suff w/o Lat.	2	260532	triumph	1.0	0.0	False
261.449	0.0	0Suff NW	4	261449	finiles	0.0	1.0	False
262.407	0.0	0Suff NW	4	262407	pasnet	0.0	1.0	False
263.299	0.0	0Suff NW	4	263299	concoler	0.0	1.0	False
264.158	0.0	2Suff w/o Lat.	22	264158	materialistic	1.0	0.0	False
265.275	0.0	0Suff w/o Lat.	2	265275	agree	1.0	0.0	False
266.2	0.0	2Suff w/o Lat.	22	266200	commentator	1.0	0.0	False
267.242	0.0	0Suff w/ Lat.	1	267242	extend	1.0	0.0	False
268.142	0.0	2Suff w/o Lat.	22	268142	uselessness	1.0	0.0	False
269.076	0.0	1Suff RealStemNW	15	269076	useive	0.0	1.0	False
270.126	0.0	2Suff w/o Lat.	22	270126	thoughtlessly	1.0	0.0	False
271.202	0.0	1Suff PseudoStemNW	14	271202	paftial	0.0	1.0	False
272.202	0.0	2Suff w/o Lat.	22	272202	editorship	1.0	1.0	True
273.186	0.0	2Suff PseudoStemNW	24	273186	snoughtlessly	0.0	1.0	False
274.369	0.0	2Suff w/ Lat.	21	274369	progressively	1.0	0.0	False
275.403	0.0	2Suff w/o Lat.	22	275403	essentially	1.0	0.0	False
276.387	0.0	0Suff NW	4	276387	exufant	0.0	1.0	False
277.404	0.0	0Suff w/o Lat.	2	277404	guard	1.0	0.0	False
278.521	0.0	1Suff PseudoStemNW	14	278521	diruction	0.0	1.0	False
279.663	0.0	0Suff NW	4	279663	thiend	0.0	1.0	False
284.147	0.0	1Suff RealStemNW	15	284147	architectian	0.0	0.0	True
284.631	0.0	0Suff NW	4	284631	devade	0.0	1.0	False
286.04	0.0	1Suff RealStemNW	15	286040	logicic	0.0	1.0	False
287.123	0.0	2Suff RealStemNW	25	287123	painively	0.0	1.0	False
288.249	0.0	2Suff PseudoStemNW	24	288249	concolerably	0.0	1.0	False
289.224	0.0	0Suff w/o Lat.	2	289224	drama	1.0	0.0	False
290.124	0.0	1Suff RealStemNW	15	290124	impressate	0.0	1.0	False
291.083	0.0	1Suff w/o Lat.	12	291083	healthy	1.0	0.0	False
291.975	0.0	2Suff w/o Lat.	22	291975	definitely	1.0	0.0	False
292.992	0.0	1Suff PseudoStemNW	14	292992	nolable	0.0	1.0	False
293.925	0.0	2Suff w/o Lat.	22	293925	idealization	1.0	0.0	False
295.009	0.0	2Suff RealStemNW	25	295009	poetally	0.0	1.0	False
296.226	0.0	1Suff PseudoStemNW	14	296226	betiecable	0.0	1.0	False
297.26	0.0	0Suff w/o Lat.	2	297260	note	1.0	0.0	False
298.368	0.0	0Suff w/o Lat.	2	298368	comment	1.0	0.0	False
299.352	0.0	2Suff PseudoStemNW	24	299352	ewsibally	0.0	1.0	False
300.302	0.0	2Suff w/o Lat.	22	300302	profitably	1.0	0.0	False
301.278	0.0	2Suff RealStemNW	25	301278	fatantly	0.0	1.0	False
302.261	0.0	1Suff w/o Lat.	12	302261	basic	1.0	0.0	False
303.237	0.0	1Suff PseudoStemNW	14	303237	stumial	0.0	1.0	False
304.137	0.0	0Suff w/o Lat.	2	304137	sterile	1.0	0.0	False
305.079	0.0	2Suff w/ Lat.	21	305079	affectionate	1.0	0.0	False
306.112	0.0	2Suff RealStemNW	25	306112	affectorship	0.0	1.0	False
307.188	0.0	2Suff RealStemNW	25	307188	dramationist	0.0	1.0	False
308.413	0.0	1Suff PseudoStemNW	14	308413	fralatize	0.0	1.0	False
309.363	0.0	2Suff w/o Lat.	22	309363	sleepily	1.0	0.0	False
310.289	0.0	0Suff w/ Lat.	1	310289	project	1.0	0.0	False
311.364	0.0	1Suff w/o Lat.	12	311364	glorious	1.0	0.0	False
312.331	0.0	2Suff w/o Lat.	22	312331	marketability	1.0	0.0	False
313.806	0.0	0Suff w/o Lat.	2	313806	consider	1.0	0.0	False
314.707	0.0	2Suff RealStemNW	25	314707	isolatmental	0.0	1.0	False
315.957	0.0	2Suff w/o Lat.	22	315957	nervously	1.0	0.0	False
316.866	0.0	1Suff RealStemNW	15	316866	conceptuic	0.0	1.0	False
317.966	0.0	2Suff w/o Lat.	22	317966	decisiveness	1.0	0.0	False
319.25	0.0	0Suff NW	4	319250	vimid	0.0	1.0	False
320.333	0.0	1Suff w/o Lat.	12	320333	realist	1.0	0.0	False
321.726	0.0	1Suff RealStemNW	15	321726	developward	0.0	1.0	False
322.993	0.0	1Suff PseudoStemNW	14	322993	appigental	0.0	1.0	False
324.093	0.0	1Suff w/o Lat.	12	324093	accidental	1.0	0.0	False
325.377	0.0	2Suff PseudoStemNW	24	325377	chotintically	0.0	1.0	False
326.46	0.0	1Suff PseudoStemNW	14	326460	ewsibal	0.0	1.0	False
327.411	0.0	2Suff RealStemNW	25	327411	differalism	0.0	1.0	False
328.686	0.0	1Suff w/o Lat.	12	328686	designate	1.0	0.0	False
329.761	0.0	2Suff RealStemNW	25	329761	agreeally	0.0	1.0	False
331.07	0.0	0Suff w/o Lat.	2	331070	decor	1.0	1.0	True
332.337	0.0	2Suff PseudoStemNW	24	332337	orifadality	0.0	1.0	False
333.321	0.0	2Suff w/o Lat.	22	333321	peacefully	1.0	0.0	False
334.354	0.0	0Suff w/o Lat.	2	334354	speed	1.0	0.0	False
335.438	0.0	2Suff PseudoStemNW	24	335438	allidation	0.0	1.0	False
336.58	0.0	1Suff w/o Lat.	12	336580	immunize	1.0	0.0	False
337.772	0.0	0Suff w/o Lat.	2	337772	develop	1.0	0.0	False
338.697	0.0	2Suff RealStemNW	25	338697	globical	0.0	1.0	False
339.789	0.0	0Suff w/o Lat.	2	339789	educate	1.0	0.0	False
340.731	0.0	2Suff w/o Lat.	22	340731	guiltiness	1.0	0.0	False
342.007	0.0	0Suff NW	4	342007	thack	0.0	1.0	False
344.057	0.0	1Suff w/o Lat.	12	344057	reasonable	1.0	0.0	False
345.049	0.0	0Suff NW	4	345049	steadth	0.0	1.0	False
346.083	0.0	2Suff w/o Lat.	22	346083	periodical	1.0	0.0	False
347.242	0.0	2Suff RealStemNW	25	347242	satirally	0.0	1.0	False
348.25	0.0	1Suff PseudoStemNW	14	348250	thacken	0.0	1.0	False
349.217	0.0	0Suff w/o Lat.	2	349217	delight	1.0	0.0	False
350.276	0.0	2Suff w/ Lat.	21	350276	predictably	1.0	0.0	False
351.36	0.0	2Suff PseudoStemNW	24	351360	stoteldionist	0.0	1.0	False
352.66	0.0	2Suff w/o Lat.	22	352660	governmental	1.0	0.0	False
353.794	0.0	2Suff w/o Lat.	22	353794	hopelessness	1.0	0.0	False
355.094	0.0	1Suff w/o Lat.	12	355094	definite	1.0	0.0	False
356.103	0.0	2Suff PseudoStemNW	24	356103	chirdishness	0.0	1.0	False
357.161	0.0	1Suff w/o Lat.	12	357161	difference	1.0	0.0	False
358.262	0.0	0Suff w/o Lat.	2	358262	margin	1.0	0.0	False
359.27	0.0	1Suff w/o Lat.	12	359270	ethical	1.0	0.0	False
360.337	0.0	2Suff PseudoStemNW	24	360337	snoughtfully	0.0	1.0	False
361.471	0.0	1Suff RealStemNW	15	361471	thoughtive	0.0	1.0	False
362.796	0.0	1Suff w/o Lat.	12	362796	sterilize	1.0	0.0	False
363.88	0.0	0Suff w/o Lat.	2	363880	success	1.0	0.0	False
365.081	0.0	1Suff RealStemNW	15	365081	assassinion	0.0	1.0	False
366.589	0.0	2Suff RealStemNW	25	366589	editionate	0.0	1.0	False
367.656	0.0	2Suff w/o Lat.	22	367656	glorification	1.0	0.0	False
369.015	0.0	2Suff w/o Lat.	22	369015	transitional	1.0	0.0	False
370.632	0.0	0Suff w/o Lat.	2	370632	adapt	1.0	0.0	False
371.691	0.0	1Suff RealStemNW	15	371691	hopeable	0.0	1.0	False
372.833	0.0	0Suff NW	4	372833	concuch	0.0	1.0	False
374.083	0.0	2Suff w/o Lat.	22	374083	ceremonially	1.0	0.0	False
375.384	0.0	0Suff NW	4	375384	provame	0.0	1.0	False
376.392	0.0	2Suff w/ Lat.	21	376392	subjectivity	1.0	0.0	False
377.509	0.0	1Suff PseudoStemNW	14	377509	orifadal	0.0	1.0	False
378.518	0.0	2Suff RealStemNW	25	378518	realional	0.0	1.0	False
379.568	0.0	1Suff w/o Lat.	12	379568	hopeful	1.0	0.0	False
380.66	0.0	2Suff RealStemNW	25	380660	immunability	0.0	1.0	False
382.002	0.0	0Suff w/ Lat.	1	382002	affirm	1.0		False
384.411	0.0	1Suff RealStemNW	15	384411	availless	0.0	1.0	False
386.079	0.0	2Suff RealStemNW	25	386079	friendionist	0.0	1.0	False
387.054	0.0	1Suff RealStemNW	15	387054	intensful	0.0	1.0	False
388.438	0.0	2Suff PseudoStemNW	24	388438	nerbously	0.0	1.0	False
389.421	0.0	2Suff RealStemNW	25	389421	vitalilessly	0.0	1.0	False
390.397	0.0	1Suff w/o Lat.	12	390397	sleepy	1.0	0.0	False
391.322	0.0	1Suff RealStemNW	15	391322	forgetive	0.0	1.0	False
392.381	0.0	1Suff RealStemNW	15	392381	provocatful	0.0	1.0	False
393.481	0.0	2Suff w/o Lat.	22	393481	painfully	1.0	0.0	False
394.581	0.0	2Suff w/o Lat.	22	394581	polarity	1.0	0.0	False
395.657	0.0	2Suff Composite	23	395657	organization	1.0	0.0	False
396.632	0.0	2Suff RealStemNW	25	396632	periodally	0.0	1.0	False
397.849	0.0	0Suff NW	4	397849	orifad	0.0	1.0	False
398.766	0.0	2Suff w/o Lat.	22	398766	familiarize	1.0	0.0	False
399.858	0.0	0Suff w/o Lat.	2	399858	health	1.0	0.0	False
401.092	0.0	0Suff NW	4	401092	nole	0.0	1.0	False
402.075	0.0	1Suff RealStemNW	15	402075	confessate	0.0	1.0	False
403.184	0.0	1Suff w/ Lat.	11	403184	available	1.0	0.0	False
404.284	0.0	2Suff RealStemNW	25	404284	transitality	0.0	1.0	False
405.26	0.0	1Suff w/o Lat.	12	405260	useless	1.0	0.0	False
406.31	0.0	0Suff w/o Lat.	2	406310	lead	1.0	0.0	False
407.394	0.0	1Suff PseudoStemNW	14	407394	steadthy	0.0	1.0	False
408.427	0.0	1Suff w/o Lat.	12	408427	believable	1.0	0.0	False
409.828	0.0	2Suff PseudoStemNW	24	409828	thackener	0.0	1.0	False
411.011	0.0	1Suff w/o Lat.	12	411011	relation	1.0	0.0	False
412.662	0.0	1Suff PseudoStemNW	14	412662	chierful	0.0	1.0	False
413.712	0.0	2Suff RealStemNW	25	413712	marginical	0.0	1.0	False
414.796	0.0	2Suff PseudoStemNW	24	414796	banically	0.0	1.0	False
415.754	0.0	0Suff NW	4	415754	corzess	0.0	1.0	False
416.796	0.0	2Suff Composite	23	416796	simplification	1.0	0.0	False
421.114	0.0	0Suff w/o Lat.	2	421114	essence	1.0	0.0	False
422.048	0.0	2Suff RealStemNW	25	422048	believator	0.0	1.0	False
423.373	0.0	1Suff w/ Lat.	11	423373	subjective	1.0	0.0	False
424.324	0.0	0Suff NW	4	424324	frala	0.0	1.0	False
425.241	0.0	2Suff PseudoStemNW	24	425241	chierfully	0.0	1.0	False
426.216	0.0	0Suff w/o Lat.	2	426216	family	1.0	0.0	False
427.158	0.0	0Suff w/ Lat.	1	427158	persist	1.0	0.0	False
428.158	0.0	1Suff w/o Lat.	12	428158	dramatic	1.0	0.0	False
429.033	0.0	1Suff w/o Lat.	12	429033	painful	1.0	0.0	False
429.867	0.0	0Suff NW	4	429867	diruce	0.0	1.0	False
430.717	0.0	1Suff w/o Lat.	12	430717	thoughtless	1.0	0.0	False
431.634	0.0	1Suff w/o Lat.	12	431634	gleeful	1.0	0.0	False
432.585	0.0	1Suff w/o Lat.	12	432585	heroic	1.0	0.0	False
433.443	0.0	2Suff PseudoStemNW	24	433443	stumiality	0.0	1.0	False
434.318	0.0	2Suff w/o Lat.	22	434318	immunization	1.0	0.0	False
435.394	0.0	1Suff RealStemNW	15	435394	manen	0.0	1.0	False
436.427	0.0	0Suff w/o Lat.	2	436427	dead	1.0	0.0	False
437.436	0.0	2Suff Composite	23	437436	autistic	1.0	0.0	False
438.645	0.0	2Suff PseudoStemNW	24	438645	pasnetically	0.0	1.0	False
439.637	0.0	2Suff PseudoStemNW	24	439637	cossetitively	0.0	1.0	False
440.562	0.0	2Suff Composite	23	440562	stratification	1.0	0.0	False
441.646	0.0	0Suff NW	4	441646	coul	0.0	1.0	False
442.713	0.0	0Suff NW	4	442713	hesa	0.0	1.0	False
443.655	0.0	0Suff NW	4	443655	fleed	0.0	0.0	True
444.58	0.0	1Suff w/o Lat.	12	444580	useful	1.0	0.0	False
445.822	0.0	1Suff PseudoStemNW	14	445822	tipely	0.0	1.0	False
446.972	0.0	2Suff RealStemNW	25	446972	graceively	0.0	1.0	False
447.956	0.0	2Suff RealStemNW	25	447956	commutfully	0.0	1.0	False
448.89	0.0	0Suff w/o Lat.	2	448890	aim	1.0	0.0	False
449.882	0.0	2Suff w/o Lat.	22	449882	guardianship	1.0	0.0	False
450.924	0.0	2Suff RealStemNW	25	450924	idealional	0.0	1.0	False
452.066	0.0	2Suff w/o Lat.	22	452066	trivialize	1.0	0.0	False
453.233	0.0	2Suff w/o Lat.	22	453233	additional	1.0	0.0	False
454.383	0.0	1Suff RealStemNW	15	454383	exhibitate	0.0	1.0	False
455.658	0.0	1Suff PseudoStemNW	14	455658	gulbsian	0.0	1.0	False
456.85	0.0	0Suff w/o Lat.	2	456850	regret	1.0	0.0	False
457.834	0.0	2Suff w/o Lat.	22	457834	familiarity	1.0	0.0	False
458.859	0.0	2Suff w/o Lat.	22	458859	isolationism	1.0	0.0	False
459.91	0.0	0Suff w/o Lat.	2	459910	ceremony	1.0	0.0	False
461.027	0.0	1Suff PseudoStemNW	14	461027	uspasional	0.0	1.0	False
462.194	0.0	1Suff PseudoStemNW	14	462194	prowertion	0.0	1.0	False
463.244	0.0	2Suff w/o Lat.	22	463244	originality	1.0	0.0	False
464.669	0.0	1Suff RealStemNW	15	464669	differious	0.0	1.0	False
465.845	0.0	2Suff Composite	23	465845	allegation	1.0	0.0	False
467.079	0.0	0Suff w/o Lat.	2	467079	compete	1.0	0.0	False
468.029	0.0	0Suff w/o Lat.	2	468029	thick	1.0	0.0	False
469.096	0.0	2Suff PseudoStemNW	24	469096	carbisalistic	0.0	0.0	True
470.763	0.0	1Suff w/o Lat.	12	470763	agreeable	1.0	0.0	False
471.98	0.0	2Suff w/o Lat.	22	471980	realistic	1.0	0.0	False
473.08	0.0	0Suff NW	4	473080	rhylph	0.0	1.0	False
473.997	0.0	0Suff w/o Lat.	2	473997	rhythm	1.0	0.0	False
475.006	0.0	1Suff w/ Lat.	11	475006	progressive	1.0	0.0	False
476.048	0.0	1Suff w/o Lat.	12	476048	poetic	1.0	0.0	False
477.115	0.0	0Suff NW	4	477115	bant	0.0	1.0	False
478.107	0.0	2Suff RealStemNW	25	478107	subjectously	0.0	1.0	False
479.416	0.0	0Suff w/o Lat.	2	479416	order	1.0	0.0	False
480.449	0.0	0Suff w/o Lat.	2	480449	period	1.0	0.0	False
481.516	0.0	1Suff RealStemNW	15	481516	relatful	0.0	1.0	False
482.683	0.0	2Suff w/o Lat.	22	482683	agreeably	1.0	0.0	False
484.042	0.0	2Suff w/o Lat.	22	484042	substantially	1.0		False
486.426	0.0	2Suff RealStemNW	25	486426	peaceively	0.0	1.0	False
487.71	0.0	1Suff RealStemNW	15	487710	familior	0.0	1.0	False
488.71	0.0	1Suff PseudoStemNW	14	488710	essoilial	0.0	1.0	False
489.652	0.0	2Suff w/o Lat.	22	489652	forgetfulness	1.0	0.0	False
490.811	0.0	0Suff NW	4	490811	ewsib	0.0	1.0	False
491.744	0.0	1Suff w/o Lat.	12	491744	glorify	1.0	0.0	False
492.795	0.0	0Suff w/o Lat.	2	492795	use	1.0	0.0	False
493.737	0.0	0Suff NW	4	493737	atrie	0.0	1.0	False
494.754	0.0	0Suff w/ Lat.	1	494754	instruct	1.0	0.0	False
496.062	0.0	0Suff w/o Lat.	2	496062	forget	1.0	0.0	False
497.088	0.0	2Suff RealStemNW	25	497088	familiately	0.0	1.0	False
498.221	0.0	2Suff w/o Lat.	22	498221	seasonally	1.0	0.0	False
499.288	0.0	1Suff PseudoStemNW	14	499288	distawksive	0.0	1.0	False
500.272	0.0	0Suff w/o Lat.	2	500272	profit	1.0	0.0	False
501.297	0.0	2Suff w/o Lat.	22	501297	hopelessly	1.0	0.0	False
502.398	0.0	1Suff PseudoStemNW	14	502398	paskful	0.0	1.0	False
503.448	0.0	0Suff w/o Lat.	2	503448	fury	1.0	0.0	False
504.498	0.0	0Suff NW	4	504498	pask	0.0	1.0	False
505.599	0.0	2Suff RealStemNW	25	505599	predictator	0.0	1.0	False
506.724	0.0	2Suff w/o Lat.	22	506724	dramatically	1.0	0.0	False
507.941	0.0	0Suff NW	4	507941	hode	0.0	1.0	False
508.858	0.0	2Suff w/o Lat.	22	508858	softener	1.0	0.0	False
509.933	0.0	2Suff RealStemNW	25	509933	raceical	0.0	1.0	False
510.925	0.0	1Suff w/o Lat.	12	510925	aimless	1.0	0.0	False
512.167	0.0	1Suff w/o Lat.	12	512167	mythical	1.0	0.0	False
513.201	0.0	2Suff w/o Lat.	22	513201	stealthily	1.0	0.0	False
514.31	0.0	1Suff RealStemNW	15	514310	exhaustful	0.0	1.0	False
515.61	0.0	2Suff RealStemNW	25	515610	hopeively	0.0	1.0	False
516.685	0.0	2Suff PseudoStemNW	24	516685	devesugmental	0.0	1.0	False
517.644	0.0	0Suff NW	4	517644	helily	0.0	1.0	False
518.644	0.0	2Suff w/o Lat.	22	518644	childishly	1.0	1.0	True
519.603	0.0	2Suff Composite	23	519603	quotation	1.0	0.0	False
520.945	0.0	2Suff w/o Lat.	22	520945	developmental	1.0	0.0	False
522.237	0.0	1Suff PseudoStemNW	14	522237	fralatic	0.0	1.0	False
523.646	0.0	1Suff PseudoStemNW	14	523646	thashful	0.0	1.0	False
524.671	0.0	1Suff RealStemNW	15	524671	instructate	0.0	1.0	False
526.155	0.0	1Suff RealStemNW	15	526155	leador	0.0	1.0	False
527.23	0.0	1Suff w/o Lat.	12	527230	nervous	1.0	0.0	False
528.206	0.0	0Suff NW	4	528206	affall	0.0	1.0	False
529.164	0.0	1Suff PseudoStemNW	14	529164	sorken	0.0	1.0	False
530.181	0.0	0Suff NW	4	530181	prebit	0.0	1.0	False
531.323	0.0	2Suff w/ Lat.	21	531323	availability	1.0	0.0	False
532.299	0.0	1Suff RealStemNW	15	532299	poetal	0.0	1.0	False
533.332	0.0	1Suff RealStemNW	15	533332	immunist	0.0	1.0	False
534.641	0.0	0Suff NW	4	534641	desalk	0.0	1.0	False
535.591	0.0	2Suff PseudoStemNW	24	535591	paftially	0.0	1.0	False
536.55	0.0	2Suff PseudoStemNW	24	536550	tutiously	0.0	1.0	False
537.458	0.0	2Suff w/o Lat.	22	537458	isolationist	1.0	0.0	False
538.734	0.0	0Suff NW	4	538734	analk	0.0	1.0	False
539.734	0.0	1Suff w/o Lat.	12	539734	fatal	1.0		False
542.143	0.0	1Suff w/o Lat.	12	542143	successful	1.0	0.0	False
543.827	0.0	2Suff w/o Lat.	22	543827	relativism	1.0	0.0	False
544.977	0.0	1Suff w/o Lat.	12	544977	racial	1.0	0.0	False
546.061	0.0	0Suff NW	4	546061	peece	0.0	1.0	False
547.061	0.0	1Suff w/o Lat.	12	547061	stealthy	1.0	0.0	False
547.995	0.0	2Suff w/o Lat.	22	547995	polarize	1.0	0.0	False
549.012	0.0	2Suff PseudoStemNW	24	549012	cunerogially	0.0	1.0	False
550.012	0.0	1Suff w/o Lat.	12	550012	transition	1.0	0.0	False
551.138	0.0	0Suff NW	4	551138	hyth	0.0	1.0	False
562.8	0.0	2Suff w/o Lat.	22	562800	logically	1.0	0.0	False
563.858	0.0	1Suff RealStemNW	15	563858	considerion	0.0	1.0	False
564.917	0.0	1Suff PseudoStemNW	14	564917	dehonite	0.0	1.0	False
565.851	0.0	0Suff w/o Lat.	2	565851	relate	1.0	0.0	False
566.734	0.0	2Suff w/o Lat.	22	566734	statistically	1.0	0.0	False
567.684	0.0	2Suff RealStemNW	25	567684	financeical	0.0	1.0	False
568.568	0.0	0Suff w/o Lat.	2	568568	moist	1.0	0.0	False
569.652	0.0	0Suff w/o Lat.	2	569652	pole	1.0	0.0	False
570.585	0.0	0Suff NW	4	570585	miccess	0.0	0.0	True
571.577	0.0	2Suff PseudoStemNW	24	571577	headthily	0.0	1.0	False
572.853	0.0	0Suff NW	4	572853	instrove	0.0	1.0	False
573.77	0.0	1Suff w/o Lat.	12	573770	editor	1.0	0.0	False
574.787	0.0	2Suff w/o Lat.	22	574787	nervousness	1.0	0.0	False
575.754	0.0	2Suff PseudoStemNW	24	575754	lenctionally	0.0	1.0	False
576.679	0.0	0Suff w/o Lat.	2	576679	thank	1.0	0.0	False
577.721	0.0	1Suff RealStemNW	15	577721	designion	0.0	1.0	False
578.638	0.0	1Suff w/o Lat.	12	578638	thankful	1.0	0.0	False
579.546	0.0	2Suff w/o Lat.	22	579546	musically	1.0	0.0	False
580.647	0.0	1Suff w/o Lat.	12	580647	direction	1.0	0.0	False
581.58	0.0	0Suff NW	4	581580	fars	0.0	1.0	False
582.647	0.0	0Suff w/o Lat.	2	582647	direct	1.0	0.0	False
583.564	0.0	0Suff NW	4	583564	preguct	0.0	1.0	False
584.473	0.0	2Suff Composite	23	584473	cannibalistic	1.0	0.0	False
585.49	0.0	1Suff w/o Lat.	12	585490	decisive	1.0	0.0	False
586.399	0.0	1Suff w/o Lat.	12	586399	harmless	1.0	0.0	False
587.265	0.0	0Suff NW	4	587265	dehone	0.0	1.0	False
588.241	0.0	0Suff w/o Lat.	2	588241	intense	1.0	0.0	False
589.283	0.0	2Suff RealStemNW	25	589283	directality	0.0	1.0	False
590.583	0.0	1Suff w/o Lat.	12	590583	logical	1.0	0.0	False
591.608	0.0	1Suff w/o Lat.	12	591608	global	1.0	0.0	False
592.517	0.0	1Suff w/o Lat.	12	592517	faithful	1.0	0.0	False
593.442	0.0	1Suff RealStemNW	15	593442	wakeive	0.0	1.0	False
594.393	0.0	2Suff w/o Lat.	22	594393	differential	1.0	0.0	False
595.401	0.0	0Suff NW	4	595401	detisms	0.0	1.0	False
596.468	0.0	2Suff w/o Lat.	22	596468	decorative	1.0	0.0	False
597.694	0.0	2Suff RealStemNW	25	597694	definerize	0.0	1.0	False
598.911	0.0	2Suff RealStemNW	25	598911	ailistic	0.0	1.0	False
600.011	0.0	1Suff w/o Lat.	12	600011	leader	1.0	0.0	False
601.011	0.0	0Suff w/o Lat.	2	601011	cheer	1.0	0.0	False
602.003	0.0	1Suff PseudoStemNW	14	602003	rhylphic	0.0	1.0	False
602.979	0.0	1Suff PseudoStemNW	14	602979	affallion	0.0	1.0	False
603.937	0.0	1Suff w/o Lat.	12	603937	painless	1.0	0.0	False
604.979	0.0	2Suff w/o Lat.	22	604979	graciously	1.0	0.0	False
606.421	0.0	2Suff PseudoStemNW	24	606421	utefully	0.0	1.0	False
607.447	0.0	1Suff PseudoStemNW	14	607447	hythical	0.0	1.0	False
608.797	0.0	1Suff w/o Lat.	12	608797	moisture	1.0	0.0	False
609.881	0.0	2Suff RealStemNW	25	609881	fatical	0.0	1.0	False
610.914	0.0	2Suff PseudoStemNW	24	610914	essoilially	0.0	1.0	False
611.856	0.0	2Suff RealStemNW	25	611856	glorliness	0.0	1.0	False
613.19	0.0	1Suff w/o Lat.	12	613190	furious	1.0	0.0	False
614.399	0.0	0Suff w/o Lat.	2	614399	decide	1.0	0.0	False
615.574	0.0	0Suff w/o Lat.	2	615574	distinct	1.0	0.0	False
616.641	0.0	1Suff RealStemNW	15	616641	differify	0.0	1.0	False
617.625	0.0	0Suff w/o Lat.	2	617625	fright	1.0	0.0	False
618.692	0.0	0Suff NW	4	618692	gloo	0.0	1.0	False
620.092	0.0	0Suff NW	4	620092	urmer	0.0	1.0	False
621.118	0.0	0Suff NW	4	621118	eserete	0.0	1.0	False
622.076	0.0	0Suff NW	4	622076	lenction	0.0	1.0	False
623.001	0.0	2Suff RealStemNW	25	623001	editerize	0.0	1.0	False
623.868	0.0	2Suff w/o Lat.	22	623868	thankfulness	1.0	0.0	False
625.035	0.0	2Suff w/o Lat.	22	625035	relational	1.0	0.0	False
626.194	0.0	1Suff w/o Lat.	12	626194	government	1.0	0.0	False
627.136	0.0	0Suff NW	4	627136	girern	0.0	1.0	False
628.22	0.0	2Suff PseudoStemNW	24	628220	sorkener	0.0	1.0	False
629.137	0.0	2Suff PseudoStemNW	24	629137	falality	0.0	1.0	False
630.12	0.0	1Suff PseudoStemNW	14	630120	fleepy	0.0	1.0	False
631.046	0.0	1Suff PseudoStemNW	14	631046	deabonable	0.0	1.0	False
632.038	0.0	1Suff w/o Lat.	12	632038	thoughtful	1.0	0.0	False
633.455	0.0	2Suff w/o Lat.	22	633455	childishness	1.0	0.0	False
634.422	0.0	0Suff w/o Lat.	2	634422	govern	1.0	0.0	False
635.364	0.0	1Suff PseudoStemNW	14	635364	halkless	0.0	1.0	False
636.339	0.0	2Suff w/ Lat.	21	636339	conceptualize	1.0	0.0	False
637.498	0.0	0Suff NW	4	637498	chier	0.0	1.0	False
638.548	0.0	0Suff w/o Lat.	2	638548	out	1.0	0.0	False
639.79	0.0	2Suff PseudoStemNW	24	639790	falumfilly	0.0	1.0	False
640.757	0.0	0Suff NW	4	640757	deabon	0.0	1.0	False
641.716	0.0	2Suff RealStemNW	25	641716	decisishness	0.0	1.0	False
642.883	0.0	0Suff NW	4	642883	snought	0.0	1.0	False
644.425	0.0	2Suff PseudoStemNW	24	644425	reratively	0.0	1.0	False
645.6	0.0	1Suff PseudoStemNW	14	645600	affaidative	0.0	1.0	False
646.542	0.0	1Suff w/o Lat.	12	646542	architecture	1.0	0.0	False
647.667	0.0	2Suff PseudoStemNW	24	647667	thashfulness	0.0	1.0	False
648.684	0.0	2Suff PseudoStemNW	24	648684	eltensively	0.0	1.0	False
649.643	0.0	1Suff PseudoStemNW	14	649643	chansotion	0.0	1.0	False
650.652	0.0	2Suff w/o Lat.	22	650652	editorial	1.0	0.0	False
652.135	0.0	2Suff PseudoStemNW	24	652135	miccessfully	0.0	1.0	False
653.136	0.0	0Suff NW	4	653136	glibe	0.0	1.0	False
654.086	0.0	1Suff w/o Lat.	12	654086	statistical	1.0	0.0	False
655.495	0.0	1Suff w/o Lat.	12	655495	different	1.0	0.0	False
656.712	0.0	0Suff NW	4	656712	ippune	0.0	1.0	False
657.845	0.0	2Suff RealStemNW	25	657845	projectliness	0.0	1.0	False
659.629	0.0	0Suff w/o Lat.	2	659629	confess	1.0	0.0	False
660.596	0.0	1Suff w/o Lat.	12	660596	wakeful	1.0	0.0	False
661.53	0.0	0Suff w/o Lat.	2	661530	rest	1.0	0.0	False
662.397	0.0	2Suff w/o Lat.	22	662397	provocatively	1.0	0.0	False
663.547	0.0	2Suff w/o Lat.	22	663547	accidentally	1.0	0.0	False
664.564	0.0	2Suff Composite	23	664564	vexation	1.0	0.0	False
666.515	0.0	0Suff NW	4	666515	nerbs	0.0	1.0	False
667.598	0.0	0Suff NW	4	667598	faulm	0.0	1.0	False
668.582	0.0	2Suff RealStemNW	25	668582	easery	0.0	1.0	False
669.432	0.0	0Suff NW	4	669432	eshaums	0.0	1.0	False
670.316	0.0	2Suff w/o Lat.	22	670316	soulfully	1.0	0.0	False
671.816	0.0	2Suff w/ Lat.	21	671816	projectionist	1.0	0.0	False
672.917	0.0	1Suff w/o Lat.	12	672917	timely	1.0	0.0	False
674.292	0.0	0Suff NW	4	674292	mosime	0.0	1.0	False
675.309	0.0	2Suff w/o Lat.	22	675309	originator	1.0	1.0	True
677.285	0.0	1Suff w/o Lat.	12	677285	considerate	1.0	0.0	False
678.594	0.0	2Suff PseudoStemNW	24	678594	nerbousness	0.0	1.0	False
679.669	0.0	0Suff NW	4	679669	snight	0.0	1.0	False
680.694	0.0	2Suff RealStemNW	25	680694	harmiously	0.0	1.0	False
681.686	0.0	0Suff NW	4	681686	chansot	0.0	1.0	False
682.553	0.0	1Suff PseudoStemNW	14	682553	eetward	0.0	1.0	False
683.428	0.0	2Suff PseudoStemNW	24	683428	diructorship	0.0	1.0	False
684.354	0.0	1Suff w/o Lat.	12	684354	execution	1.0	0.0	False
685.429	0.0	1Suff PseudoStemNW	14	685429	arful	0.0	1.0	False
686.638	0.0	0Suff w/o Lat.	2	686638	accident	1.0	1.0	True
688.196	0.0	2Suff RealStemNW	25	688196	marketfulness	0.0	1.0	False
689.555	0.0	0Suff w/o Lat.	2	689555	believe	1.0	0.0	False
690.506	0.0	2Suff w/o Lat.	22	690506	persuasively	1.0	0.0	False
698.625	0.0	2Suff w/o Lat.	22	698625	gracefully	1.0	0.0	False
699.542	0.0	1Suff PseudoStemNW	14	699542	snoughtless	0.0	1.0	False
700.5	0.0	2Suff RealStemNW	25	700500	provocatfully	0.0	1.0	False
701.684	0.0	1Suff w/o Lat.	12	701684	decorate	1.0	0.0	False
702.593	0.0	2Suff w/o Lat.	22	702593	protectionist	1.0	1.0	True
703.61	0.0	1Suff w/o Lat.	12	703610	forgetful	1.0	0.0	False
704.668	0.0	0Suff NW	4	704668	coppent	0.0	1.0	False
705.644	0.0	0Suff NW	4	705644	perburve	0.0	1.0	False
706.56	0.0	0Suff w/o Lat.	2	706560	market	1.0	0.0	False
707.536	0.0	0Suff NW	4	707536	manhet	0.0	1.0	False
708.453	0.0	2Suff Composite	23	708453	sterilization	1.0	0.0	False
709.445	0.0	2Suff PseudoStemNW	24	709445	mistilenly	0.0	1.0	False
710.412	0.0	1Suff w/o Lat.	12	710412	soften	1.0	0.0	False
711.295	0.0	2Suff w/o Lat.	22	711295	orderliness	1.0	0.0	False
712.479	0.0	0Suff w/o Lat.	2	712479	friend	1.0	0.0	False
713.488	0.0	2Suff w/o Lat.	22	713488	partiality	1.0	0.0	False
714.571	0.0	0Suff NW	4	714571	eant	0.0	1.0	False
715.48	0.0	1Suff PseudoStemNW	14	715480	worchless	0.0	1.0	False
716.48	0.0	2Suff RealStemNW	25	716480	restiousness	0.0	1.0	False
717.447	0.0	1Suff PseudoStemNW	14	717447	cunerogial	0.0	1.0	False
718.347	0.0	2Suff RealStemNW	25	718347	forgetiveness	0.0	1.0	False
719.398	0.0	2Suff PseudoStemNW	24	719398	imoatization	0.0	1.0	False
720.315	0.0	2Suff RealStemNW	25	720315	cheerability	0.0	1.0	False
721.198	0.0	2Suff RealStemNW	25	721198	dramatilessly	0.0	1.0	False
722.207	0.0	0Suff NW	4	722207	stumia	0.0	1.0	False
723.141	0.0	1Suff w/o Lat.	12	723141	competitive	1.0	0.0	False
724.283	0.0	2Suff w/o Lat.	22	724283	fatality	1.0	0.0	False
725.291	0.0	0Suff NW	4	725291	mevion	0.0	1.0	False
726.433	0.0	2Suff w/o Lat.	22	726433	triviality	1.0	0.0	False
727.8	0.0	0Suff w/o Lat.	2	727800	myth	1.0	0.0	False
728.809	0.0	2Suff PseudoStemNW	24	728809	fleedily	0.0	1.0	False
729.843	0.0	0Suff NW	4	729843	essoils	0.0	1.0	False
730.893	0.0	1Suff w/ Lat.	11	730893	conceptual	1.0	0.0	False
732.06	0.0	1Suff w/o Lat.	12	732060	occasional	1.0	0.0	False
733.077	0.0	0Suff w/ Lat.	1	733077	avail	1.0	0.0	False
734.311	0.0	0Suff NW	4	734311	imoat	0.0	1.0	False
736.103	0.0	2Suff PseudoStemNW	24	736103	tipeliness	0.0	1.0	False
737.103	0.0	0Suff NW	4	737103	uspasion	0.0	1.0	False
738.103	0.0	0Suff w/o Lat.	2	738103	assassin	1.0	0.0	False
739.362	0.0	0Suff w/o Lat.	2	739362	poet	1.0	0.0	False
740.338	0.0	0Suff w/o Lat.	2	740338	substance	1.0	0.0	False
741.413	0.0	0Suff w/o Lat.	2	741413	stealth	1.0	0.0	False
742.363	0.0	1Suff w/o Lat.	12	742363	thicken	1.0	0.0	False
743.322	0.0	2Suff w/o Lat.	22	743322	notably	1.0	0.0	False
744.23	0.0	0Suff NW	4	744230	devesug	0.0	1.0	False
745.147	0.0	0Suff w/o Lat.	2	745147	protect	1.0	0.0	False
746.306	0.0	2Suff PseudoStemNW	24	746306	cidlical	0.0	1.0	False
747.398	0.0	2Suff RealStemNW	25	747398	familierage	0.0	1.0	False
748.398	0.0	2Suff RealStemNW	25	748398	seasonical	0.0	1.0	False
749.615	0.0	2Suff Composite	23	749615	amplification	1.0	0.0	False
750.682	0.0	2Suff w/o Lat.	22	750682	confessional	1.0	0.0	False
752.108	0.0	0Suff NW	4	752108	esdybit	0.0	1.0	False
753.333	0.0	2Suff PseudoStemNW	24	753333	mosimization	0.0	1.0	False
754.65	0.0	2Suff w/o Lat.	22	754650	relatively	1.0	0.0	False
755.842	0.0	1Suff w/ Lat.	11	755842	predictable	1.0	0.0	False
756.918	0.0	2Suff w/o Lat.	22	756918	awfully	1.0	0.0	False
758.093	0.0	2Suff w/o Lat.	22	758093	cheerfully	1.0	0.0	False
759.002	0.0	2Suff w/o Lat.	22	759002	idealistic	1.0	0.0	False
760.01	0.0	2Suff PseudoStemNW	24	760010	denboderation	0.0	1.0	False
760.986	0.0	0Suff w/o Lat.	2	760986	exhaust	1.0	0.0	False
762.128	0.0	2Suff Composite	23	762128	satirical	1.0	1.0	True
763.728	0.0	1Suff w/o Lat.	12	763728	addition	1.0	0.0	False
764.762	0.0	2Suff PseudoStemNW	24	764762	affallation	0.0	1.0	False
765.737	0.0	0Suff w/o Lat.	2	765737	fate	1.0	0.0	False
766.779	0.0	0Suff w/ Lat.	1	766779	affect	1.0	0.0	False
767.729	0.0	2Suff PseudoStemNW	24	767729	deabonably	0.0	1.0	False
768.721	0.0	1Suff PseudoStemNW	14	768721	mosimize	0.0	1.0	False
769.68	0.0	2Suff Composite	23	769680	dramatization	1.0	0.0	False
770.964	0.0	2Suff PseudoStemNW	24	770964	onnensively	0.0	1.0	False
772.156	0.0	2Suff PseudoStemNW	24	772156	rerational	0.0	1.0	False
773.131	0.0	1Suff PseudoStemNW	14	773131	devadive	0.0	1.0	False
774.065	0.0	2Suff w/o Lat.	22	774065	designation	1.0	0.0	False
775.473	0.0	1Suff w/o Lat.	12	775473	hopeless	1.0	0.0	False
776.749	0.0	1Suff w/o Lat.	12	776749	orderly	1.0	0.0	False
777.991	0.0	0Suff w/o Lat.	2	777991	thought	1.0	0.0	False
778.933	0.0	0Suff w/o Lat.	2	778933	transit	1.0	0.0	False
780.016	0.0	0Suff w/o Lat.	2	780016	globe	1.0	0.0	False
781.058	0.0	2Suff w/ Lat.	21	781058	impressionism	1.0	0.0	False
782.184	0.0	0Suff NW	4	782184	grame	0.0	1.0	False
783.284	0.0	1Suff RealStemNW	15	783284	marketless	0.0	1.0	False
784.668	0.0	1Suff w/o Lat.	12	784668	regrettable	1.0	0.0	False
786.077	0.0	1Suff w/o Lat.	12	786077	original	1.0	0.0	False
787.069	0.0	2Suff w/ Lat.	21	787069	persistently	1.0	0.0	False
788.511	0.0	1Suff w/o Lat.	12	788511	profitable	1.0	0.0	False
789.544	0.0	1Suff PseudoStemNW	14	789544	headthy	0.0	1.0	False
790.578	0.0	0Suff NW	4	790578	priueur	0.0	1.0	False
791.645	0.0	1Suff PseudoStemNW	14	791645	chotintical	0.0	1.0	False
792.629	0.0	2Suff w/o Lat.	22	792629	awfulness	1.0	0.0	False
793.704	0.0	1Suff RealStemNW	15	793704	agreeless	0.0	0.0	True
794.938	0.0	0Suff NW	4	794938	eltene	0.0	1.0	False
795.905	0.0	0Suff NW	4	795905	artlitack	0.0	1.0	False
796.913	0.0	1Suff RealStemNW	15	796913	painable	0.0	1.0	False
798.239	0.0	0Suff w/o Lat.	2	798239	ease	1.0	0.0	False
799.272	0.0	2Suff w/o Lat.	22	799272	reasonably	1.0	0.0	False
800.189	0.0	1Suff w/o Lat.	12	800189	persuasive	1.0	0.0	False
801.231	0.0	1Suff RealStemNW	15	801231	marginic	0.0	1.0	False
802.448	0.0	2Suff w/o Lat.	22	802448	friendliness	1.0	0.0	False
803.699	0.0	0Suff NW	4	803699	pote	0.0	1.0	False
805.016	0.0	1Suff w/o Lat.	12	805016	dramatize	1.0	0.0	False
806.083	0.0	2Suff w/o Lat.	22	806083	notification	1.0	1.0	True
807.758	0.0	1Suff RealStemNW	15	807758	sterilist	0.0	1.0	False
808.784	0.0	1Suff RealStemNW	15	808784	childory	0.0	1.0	False
809.767	0.0	1Suff w/o Lat.	12	809767	frightful	1.0	0.0	False
810.726	0.0	2Suff RealStemNW	25	810726	glorifilessly	0.0	1.0	False
811.809	0.0	1Suff PseudoStemNW	14	811809	snightful	0.0	1.0	False
812.76	0.0	1Suff RealStemNW	15	812760	magnetal	0.0	1.0	False
813.877	0.0	1Suff PseudoStemNW	14	813877	glibal	0.0	1.0	False
814.86	0.0	2Suff RealStemNW	25	814860	futurional	0.0	1.0	False
815.786	0.0	0Suff w/o Lat.	2	815786	occasion	1.0	0.0	False
816.786	0.0	0Suff w/o Lat.	2	816786	valid	1.0	0.0	False
817.703	0.0	0Suff w/o Lat.	2	817703	execute	1.0	0.0	False
818.603	0.0	2Suff PseudoStemNW	24	818603	coppentator	0.0	1.0	False
819.695	0.0	2Suff RealStemNW	25	819695	educatality	0.0	1.0	False
821.004	0.0	2Suff RealStemNW	25	821004	fatalize	0.0	0.0	True
822.755	0.0	0Suff w/ Lat.	1	822755	concept	1.0	0.0	False
823.771	0.0	1Suff w/o Lat.	12	823771	financial	1.0	0.0	False
824.78	0.0	1Suff RealStemNW	15	824780	idealate	0.0	0.0	True
825.689	0.0	0Suff NW	4	825689	paffer	0.0	1.0	False
826.964	0.0	1Suff PseudoStemNW	14	826964	nolify	0.0	1.0	False
835.417	0.0	1Suff RealStemNW	15	835417	educatate	0.0	1.0	False
836.459	0.0	0Suff w/o Lat.	2	836459	soul	1.0	0.0	False
837.384	0.0	2Suff w/ Lat.	21	837384	mistakenly	1.0	0.0	False
838.426	0.0	2Suff PseudoStemNW	24	838426	inshemmation	0.0	1.0	False
839.268	0.0	2Suff PseudoStemNW	24	839268	otification	0.0	1.0	False
840.26	0.0	0Suff w/o Lat.	2	840260	define	1.0	0.0	False
841.269	0.0	1Suff PseudoStemNW	14	841269	farsen	0.0	1.0	False
842.194	0.0	2Suff RealStemNW	25	842194	governancial	0.0	1.0	False
843.344	0.0	2Suff w/o Lat.	22	843344	wakefulness	1.0	0.0	False
845.045	0.0	1Suff PseudoStemNW	14	845045	wrotious	0.0	1.0	False
845.92	0.0	1Suff w/ Lat.	11	845920	instruction	1.0	0.0	False
846.829	0.0	0Suff NW	4	846829	pead	0.0	1.0	False
847.762	0.0	0Suff NW	4	847762	appigent	0.0	1.0	False
848.629	0.0	2Suff w/o Lat.	22	848629	marginally	1.0	1.0	True
849.471	0.0	2Suff RealStemNW	25	849471	considerishly	0.0	1.0	False
850.605	0.0	1Suff w/ Lat.	11	850605	mistaken	1.0	0.0	False
851.538	0.0	2Suff w/o Lat.	22	851538	fatalism	1.0	0.0	False
852.53	0.0	1Suff PseudoStemNW	14	852530	meabonal	0.0	1.0	False
853.464	0.0	0Suff NW	4	853464	chird	0.0	1.0	False
854.498	0.0	1Suff RealStemNW	15	854498	persuasful	0.0	1.0	False
855.615	0.0	2Suff w/o Lat.	22	855615	educational	1.0	0.0	False
856.715	0.0	1Suff w/o Lat.	12	856715	distinctive	1.0	0.0	False
857.724	0.0	2Suff w/o Lat.	22	857724	hopefully	1.0	0.0	False
858.741	0.0	2Suff PseudoStemNW	24	858741	degorative	0.0	0.0	True
860.291	0.0	1Suff PseudoStemNW	14	860291	analkable	0.0	1.0	False
861.275	0.0	0Suff w/o Lat.	2	861275	music	1.0	0.0	False
862.342	0.0	0Suff w/o Lat.	2	862342	function	1.0	0.0	False
863.284	0.0	2Suff w/o Lat.	22	863284	definitive	1.0	0.0	False
864.217	0.0	2Suff w/o Lat.	22	864217	directional	1.0	0.0	False
865.268	0.0	1Suff PseudoStemNW	14	865268	prodfessive	0.0	1.0	False
866.218	0.0	1Suff PseudoStemNW	14	866218	reration	0.0	1.0	False
867.16	0.0	0Suff w/o Lat.	2	867160	glory	1.0	0.0	False
868.135	0.0	0Suff w/o Lat.	2	868135	nerve	1.0	0.0	False
869.06	0.0	0Suff NW	4	869060	wead	0.0	1.0	False
870.327	0.0	1Suff PseudoStemNW	14	870327	awdition	0.0	1.0	False
871.328	0.0	1Suff RealStemNW	15	871328	financeic	0.0	1.0	False
872.303	0.0	0Suff w/ Lat.	1	872303	exhibit	1.0	0.0	False
873.378	0.0	1Suff PseudoStemNW	14	873378	aisless	0.0	1.0	False
874.587	0.0	0Suff w/o Lat.	2	874587	season	1.0	0.0	False
875.712	0.0	1Suff w/o Lat.	12	875712	gracious	1.0	0.0	False
878.105	0.0	2Suff w/o Lat.	22	878105	validation	1.0	0.0	False
879.08	0.0	0Suff w/o Lat.	2	879080	guilt	1.0	0.0	False
879.972	0.0	0Suff NW	4	879972	rerard	0.0	1.0	False
881.006	0.0	0Suff w/ Lat.	1	881006	mistake	1.0	0.0	False
881.981	0.0	2Suff RealStemNW	25	881981	musicical	0.0	1.0	False
883.523	0.0	0Suff NW	4	883523	mistile	0.0	1.0	False
884.565	0.0	2Suff RealStemNW	25	884565	awively	0.0	1.0	False
885.432	0.0	1Suff RealStemNW	15	885432	realify	0.0	1.0	False
886.416	0.0	0Suff w/o Lat.	2	886416	child	1.0	0.0	False
887.358	0.0	1Suff w/ Lat.	11	887358	affirmative	1.0	0.0	False
888.433	0.0	1Suff w/o Lat.	12	888433	functional	1.0	0.0	False
889.492	0.0	2Suff w/ Lat.	21	889492	conceptually	1.0	0.0	False
890.5	0.0	0Suff NW	4	890500	degor	0.0	1.0	False
891.626	0.0	2Suff RealStemNW	25	891626	persistalism	0.0	0.0	True
893.368	0.0	2Suff w/o Lat.	22	893368	fatally	1.0	0.0	False
894.86	0.0	0Suff w/o Lat.	2	894860	logic	1.0	0.0	False
895.777	0.0	2Suff Composite	23	895777	futuristic	1.0	0.0	False
896.852	0.0	1Suff w/o Lat.	12	896852	trivial	1.0	0.0	False
897.828	0.0	1Suff PseudoStemNW	14	897828	wrotify	0.0	1.0	False
898.945	0.0	0Suff w/o Lat.	2	898945	real	1.0	0.0	False
900.178	0.0	0Suff w/o Lat.	2	900178	isolate	1.0	0.0	False
901.254	0.0	2Suff PseudoStemNW	24	901254	pafferentiate	0.0	1.0	False
902.271	0.0	0Suff NW	4	902271	thash	0.0	1.0	False
903.329	0.0	1Suff w/o Lat.	12	903329	assassinate	1.0	0.0	False
905.188	0.0	2Suff w/o Lat.	22	905188	originally	1.0	0.0	False
906.197	0.0	2Suff w/ Lat.	21	906197	instructional	1.0	0.0	False
907.297	0.0	2Suff PseudoStemNW	24	907297	artlitackural	0.0	1.0	False
908.439	0.0	2Suff PseudoStemNW	24	908439	potarity	0.0	1.0	False
909.565	0.0	0Suff w/o Lat.	2	909565	magnet	1.0	0.0	False
910.898	0.0	1Suff PseudoStemNW	14	910898	pavediadist	0.0		False
913.307	0.0	0Suff NW	4	913307	stoteld	0.0	1.0	False
914.366	0.0	2Suff PseudoStemNW	24	914366	orifadator	0.0	1.0	False
915.266	0.0	2Suff w/o Lat.	22	915266	fatalist	1.0	0.0	False
916.642	0.0	1Suff PseudoStemNW	14	916642	falal	0.0	1.0	False
918.042	0.0	2Suff w/o Lat.	22	918042	deadliness	1.0	1.0	True
919.468	0.0	0Suff NW	4	919468	fale	0.0	1.0	False
920.485	0.0	2Suff PseudoStemNW	24	920485	gramiously	0.0	1.0	False
921.568	0.0	2Suff Composite	23	921568	pasteurization	1.0	0.0	False
922.685	0.0	0Suff NW	4	922685	mowth	0.0	1.0	False
923.66	0.0	2Suff PseudoStemNW	24	923660	pinonical	0.0	1.0	False
924.627	0.0	2Suff Composite	23	924627	militarization	1.0	0.0	False
925.711	0.0	1Suff RealStemNW	15	925711	periodal	0.0	1.0	False
927.128	0.0	0Suff NW	4	927128	tuty	0.0	1.0	False
928.22	0.0	0Suff NW	4	928220	itcress	0.0	1.0	False
929.196	0.0	0Suff NW	4	929196	cunerogy	0.0	1.0	False
930.129	0.0	1Suff w/o Lat.	12	930129	marginal	1.0	0.0	False
931.079	0.0	2Suff w/o Lat.	22	931079	healthily	1.0	0.0	False
932.155	0.0	0Suff w/ Lat.	1	932155	subject	1.0	0.0	False
933.055	0.0	0Suff NW	4	933055	goult	0.0	1.0	False
934.005	0.0	2Suff w/o Lat.	22	934005	worthlessness	1.0	0.0	False
935.047	0.0	0Suff w/o Lat.	2	935047	reason	1.0	0.0	False
935.956	0.0	0Suff NW	4	935956	sest	0.0	1.0	False
936.806	0.0	0Suff w/o Lat.	2	936806	ethic	1.0	0.0	False
937.773	0.0	0Suff w/ Lat.	1	937773	impress	1.0	0.0	False
938.673	0.0	1Suff w/o Lat.	12	938673	materialist	1.0	0.0	False
939.582	0.0	2Suff PseudoStemNW	24	939582	orifadally	0.0	1.0	False
940.591	0.0	1Suff PseudoStemNW	14	940591	priueurant	0.0	1.0	False
941.583	0.0	1Suff RealStemNW	15	941583	successate	0.0	1.0	False
942.625	0.0	2Suff w/o Lat.	22	942625	ethically	1.0	0.0	False
943.575	0.0	2Suff w/o Lat.	22	943575	painlessly	1.0	0.0	False
944.609	0.0	0Suff w/o Lat.	2	944609	soft	1.0	0.0	False
945.534	0.0	1Suff PseudoStemNW	14	945534	goulty	0.0	1.0	False
946.659	0.0	1Suff PseudoStemNW	14	946659	etilor	0.0	1.0	False
947.618	0.0	1Suff w/o Lat.	12	947618	periodic	1.0	0.0	False
948.852	0.0	2Suff w/ Lat.	21	948852	subjectively	1.0	1.0	True
950.127	0.0	2Suff w/o Lat.	22	950127	differentiate	1.0	0.0	False
951.694	0.0	0Suff NW	4	951694	awd	0.0	1.0	False
952.686	0.0	1Suff w/o Lat.	12	952686	idealize	1.0	0.0	False
953.836	0.0	2Suff Composite	23	953836	deterministic	1.0	0.0	False
955.07	0.0	1Suff w/o Lat.	12	955070	adaptable	1.0	0.0	False
956.196	0.0	2Suff Composite	23	956196	commutation	1.0	0.0	False
957.813	0.0	1Suff w/o Lat.	12	957813	musical	1.0	0.0	False
959.472	0.0	2Suff RealStemNW	25	959472	categorally	0.0	1.0	False
960.797	0.0	2Suff PseudoStemNW	24	960797	deterfuristic	0.0	1.0	False
961.906	0.0	0Suff w/o Lat.	2	961906	time	1.0	0.0	False
962.956	0.0	1Suff PseudoStemNW	14	962956	lenctional	0.0	1.0	False
963.99	0.0	2Suff w/o Lat.	22	963990	timeliness	1.0	0.0	False
965.023	0.0	0Suff w/o Lat.	2	965023	pain	1.0	0.0	False
965.94	0.0	1Suff w/o Lat.	12	965940	exhaustive	1.0	0.0	False
973.467	0.0	2Suff w/o Lat.	22	973467	believably	1.0	1.0	True
975.335	0.0	2Suff RealStemNW	25	975335	relateness	0.0	1.0	False
976.485	0.0	1Suff w/o Lat.	12	976485	outward	1.0	0.0	False
977.477	0.0	1Suff PseudoStemNW	14	977477	imoatist	0.0	1.0	False
978.477	0.0	2Suff w/o Lat.	22	978477	gloriously	1.0	0.0	False
979.719	0.0	0Suff w/o Lat.	2	979719	ideal	1.0	0.0	False
980.603	0.0	2Suff w/o Lat.	22	980603	basically	1.0	0.0	False
981.478	0.0	2Suff PseudoStemNW	24	981478	priueurantly	0.0	1.0	False
982.395	0.0	1Suff w/ Lat.	11	982395	extensive	1.0	0.0	False
983.321	0.0	2Suff RealStemNW	25	983321	subjectfully	0.0	1.0	False
984.538	0.0	0Suff NW	4	984538	eet	0.0	1.0	False
985.471	0.0	1Suff PseudoStemNW	14	985471	sushective	0.0	1.0	False
986.371	0.0	1Suff w/o Lat.	12	986371	peaceful	1.0	0.0	False
987.297	0.0	0Suff w/o Lat.	2	987297	awe	1.0	0.0	False
988.33	0.0	1Suff PseudoStemNW	14	988330	fleedy	0.0	1.0	False
989.306	0.0	2Suff RealStemNW	25	989306	conceptuical	0.0	1.0	False
990.431	0.0	1Suff w/o Lat.	12	990431	marketable	1.0	0.0	False
991.365	0.0	0Suff NW	4	991365	wate	0.0	1.0	False
992.29	0.0	1Suff w/o Lat.	12	992290	guardian	1.0	0.0	False
993.19	0.0	0Suff NW	4	993190	attossin	0.0	1.0	False
994.107	0.0	2Suff PseudoStemNW	24	994107	detismsfully	0.0	1.0	False
995.049	0.0	2Suff w/o Lat.	22	995049	gleefully	1.0	0.0	False
995.983	0.0	2Suff RealStemNW	25	995983	relatifiable	0.0	1.0	False
996.916	0.0	2Suff RealStemNW	25	996916	orderionist	0.0	1.0	False
997.908	0.0	2Suff w/o Lat.	22	997908	functionally	1.0	0.0	False
998.85	0.0	0Suff w/o Lat.	2	998850	wake	1.0	0.0	False
999.751	0.0	2Suff Composite	23	999751	confederation	1.0	1.0	True
1000.776	0.0	1Suff w/o Lat.	12	1000776	manly	1.0	0.0	False
1001.86	0.0	2Suff w/o Lat.	22	1001860	restlessness	1.0	0.0	False
1002.885	0.0	2Suff w/ Lat.	21	1002885	extensively	1.0	0.0	False
1004.002	0.0	0Suff w/o Lat.	2	1004002	edit	1.0	0.0	False
1005.027	0.0	0Suff w/o Lat.	2	1005027	peace	1.0	0.0	False
1005.919	0.0	1Suff w/o Lat.	12	1005919	friendly	1.0	0.0	False
1006.811	0.0	2Suff PseudoStemNW	24	1006811	urhanization	0.0	1.0	False
1008.053	0.0	1Suff w/o Lat.	12	1008053	delightful	1.0	0.0	False
1009.395	0.0	0Suff w/o Lat.	2	1009395	finance	1.0	0.0	False
1010.395	0.0	2Suff PseudoStemNW	24	1010395	restittably	0.0	1.0	False
1011.487	0.0	1Suff PseudoStemNW	14	1011487	concolerable	0.0	1.0	False
1012.98	0.0	1Suff PseudoStemNW	14	1012980	rumical	0.0	1.0	False
1014.23	0.0	2Suff w/o Lat.	22	1014230	partially	1.0	0.0	False
1015.58	0.0	1Suff w/o Lat.	12	1015580	education	1.0	0.0	False
1016.514	0.0	2Suff w/o Lat.	22	1016514	considerately	1.0	0.0	False
1017.581	0.0	0Suff NW	4	1017581	moel	0.0	1.0	False
1018.681	0.0	1Suff PseudoStemNW	14	1018681	ramial	0.0	1.0	False
1019.74	0.0	2Suff RealStemNW	25	1019740	accidentical	0.0	1.0	False
1020.965	0.0	2Suff w/o Lat.	22	1020965	regrettably	1.0	0.0	False
1022.224	0.0	2Suff w/o Lat.	22	1022224	triumphantly	1.0	0.0	False
1023.475	0.0	2Suff PseudoStemNW	24	1023475	chirdishly	0.0	1.0	False
1024.733	0.0	1Suff PseudoStemNW	14	1024733	orifadate	0.0	1.0	False
1025.725	0.0	2Suff w/o Lat.	22	1025725	leadership	1.0	0.0	False
1026.851	0.0	1Suff w/o Lat.	12	1026851	cheerful	1.0	0.0	False
1028.134	0.0	1Suff RealStemNW	15	1028134	nervate	0.0	1.0	False
1029.143	0.0	2Suff RealStemNW	25	1029143	substanceical	0.0	1.0	False
1030.093	0.0	2Suff w/o Lat.	22	1030093	leaderless	1.0	0.0	False
1031.377	0.0	1Suff w/o Lat.	12	1031377	rhythmic	1.0	0.0	False
1032.544	0.0	2Suff w/ Lat.	21	1032544	affirmatively	1.0	0.0	False
1033.728	0.0	1Suff PseudoStemNW	14	1033728	subplencial	0.0	0.0	True
1034.753	0.0	0Suff w/o Lat.	2	1034753	worth	1.0	0.0	False
1035.887	0.0	1Suff w/o Lat.	12	1035887	director	1.0	0.0	False
1036.879	0.0	2Suff PseudoStemNW	24	1036879	posicarization	0.0	1.0	False
1037.879	0.0	2Suff w/o Lat.	22	1037879	magnetically	1.0	1.0	True
1038.846	0.0	2Suff RealStemNW	25	1038846	confessality	0.0	1.0	False
1039.921	0.0	0Suff w/o Lat.	2	1039921	glee	1.0	0.0	False
1040.905	0.0	2Suff w/o Lat.	22	1040905	mobilization	1.0	0.0	False
1042.005	0.0	2Suff PseudoStemNW	24	1042005	distawksively	0.0	1.0	False
1043.289	0.0	2Suff w/o Lat.	22	1043289	differently	1.0	0.0	False
1044.389	0.0	0Suff w/o Lat.	2	1044389	trivia	1.0	0.0	False
1045.506	0.0	0Suff NW	4	1045506	halk	0.0	0.0	True
1047.157	0.0	1Suff PseudoStemNW	14	1047157	preguctable	0.0	1.0	False
1049.249	0.0	2Suff w/o Lat.	22	1049249	furiously	1.0	0.0	False
1050.274	0.0	2Suff w/o Lat.	22	1050274	decorator	1.0	0.0	False
1052.05	0.0	0Suff NW	4	1052050	sushect	0.0	1.0	False
1053.05	0.0	2Suff RealStemNW	25	1053050	exhaustfully	0.0	1.0	False
1055.043	0.0	0Suff NW	4	1055043	falget	0.0	1.0	False
1056.326	0.0	2Suff w/o Lat.	22	1056326	frightfully	1.0	1.0	True
1057.568	0.0	2Suff RealStemNW	25	1057568	aimiously	0.0	1.0	False
1058.744	0.0	0Suff NW	4	1058744	restit	0.0	1.0	False
1059.711	0.0	1Suff PseudoStemNW	14	1059711	mowthure	0.0	1.0	False
1060.644	0.0	2Suff w/o Lat.	22	1060644	racially	1.0	0.0	False
1061.895	0.0	2Suff w/o Lat.	22	1061895	harmlessly	1.0	0.0	False
1063.295	0.0	0Suff NW	4	1063295	headth	0.0	0.0	True
1064.837	0.0	1Suff PseudoStemNW	14	1064837	restittable	0.0	1.0	False
1065.946	0.0	1Suff RealStemNW	15	1065946	extensful	0.0	1.0	False
1066.971	0.0	2Suff PseudoStemNW	24	1066971	esdybitionism	0.0	1.0	False
1067.98	0.0	0Suff w/o Lat.	2	1067980	hope	1.0	0.0	False
1069.139	0.0	0Suff w/o Lat.	2	1069139	race	1.0	0.0	False
1070.122	0.0	0Suff NW	4	1070122	tipe	0.0	1.0	False
1071.031	0.0	2Suff PseudoStemNW	24	1071031	comlomation	0.0	1.0	False
1071.981	0.0	2Suff Composite	23	1071981	characteristic	1.0	0.0	False
1072.965	0.0	2Suff w/o Lat.	22	1072965	usefully	1.0	0.0	False
1074.307	0.0	1Suff w/o Lat.	12	1074307	deadly	1.0	0.0	False
1075.332	0.0	2Suff RealStemNW	25	1075332	manionist	0.0	1.0	False
1076.324	0.0	2Suff PseudoStemNW	24	1076324	concuchualize	0.0	1.0	False
1077.558	0.0	1Suff PseudoStemNW	14	1077558	girernment	0.0	1.0	False
1079.175	0.0	1Suff PseudoStemNW	14	1079175	hodeful	0.0	1.0	False
1080.459	0.0	2Suff w/o Lat.	22	1080459	directorship	1.0	0.0	False
1081.734	0.0	2Suff Composite	23	1081734	biblical	1.0	0.0	False
1083.034	0.0	0Suff NW	4	1083034	pavediad	0.0	1.0	False
1084.843	0.0	1Suff w/ Lat.	11	1084843	projection	1.0	0.0	False
1086.085	0.0	2Suff PseudoStemNW	24	1086085	awditional	0.0	1.0	False
1087.111	0.0	1Suff w/o Lat.	12	1087111	development	1.0	0.0	False
1088.411	0.0	2Suff PseudoStemNW	24	1088411	watefulness	0.0	0.0	True
1089.678	0.0	2Suff PseudoStemNW	24	1089678	gloofully	0.0		False
1092.071	0.0	0Suff NW	4	1092071	rame	0.0	1.0	False
1092.946	0.0	2Suff w/o Lat.	22	1092946	relativity	1.0	0.0	False
1094.013	0.0	1Suff RealStemNW	15	1094013	peaceive	0.0	1.0	False
1095.005	0.0	1Suff w/o Lat.	12	1095005	restless	1.0	0.0	False
1096.005	0.0	2Suff w/o Lat.	22	1096005	cheerfulness	1.0	0.0	False
1097.206	0.0	2Suff Composite	23	1097206	revitalization	1.0	0.0	False
