onset	duration	trial_type	value	sample	stimulus	is_word	response	correct
34.801	0.0	1Suff RealStemNW	15	34801	falsant	0.0	6.0	False
35.893	0.0	1Suff w/o Lat.	12	35893	lusty	1.0	5.0	False
37.027	0.0	0Suff NW	4	37027	eschess	0.0	6.0	False
38.177	0.0	1Suff RealStemNW	15	38177	industryic	0.0	6.0	False
39.436	0.0	2Suff PseudoStemNW	24	39436	lokeliness	0.0	6.0	False
40.711	0.0	2Suff RealStemNW	25	40711	commerceantly	0.0	5.0	False
42.545	0.0	0Suff NW	4	42545	moolure	0.0	6.0	False
43.929	0.0	0Suff NW	4	43929	pipson	0.0	6.0	False
45.063	0.0	0Suff NW	4	45063	assork	0.0	6.0	False
46.105	0.0	2Suff w/o Lat.	22	46105	brokerage	1.0	5.0	False
47.297	0.0	2Suff RealStemNW	25	47297	attentfully	0.0	5.0	False
49.239	0.0	0Suff NW	4	49239	loke	0.0	6.0	False
50.406	0.0	2Suff Composite	23	50406	ordination	1.0	5.0	False
51.54	0.0	0Suff w/o Lat.	2	51540	attract	1.0	5.0	False
52.548	0.0	1Suff PseudoStemNW	14	52548	inflisation	0.0	6.0	False
54.091	0.0	2Suff w/o Lat.	22	54091	drunkenness	1.0	5.0	False
55.324	0.0	1Suff RealStemNW	15	55324	confidious	0.0	6.0	False
56.616	0.0	0Suff NW	4	56616	jist	0.0	6.0	False
57.7	0.0	0Suff w/o Lat.	2	57700	custom	1.0	5.0	False
59.1	0.0	2Suff RealStemNW	25	59100	alterlessly	0.0	6.0	False
60.909	0.0	2Suff RealStemNW	25	60909	presumator	0.0	6.0	False
62.335	0.0	2Suff w/ Lat.	21	62335	institutional	1.0	5.0	False
63.527	0.0	0Suff w/o Lat.	2	63527	measure	1.0	5.0	False
64.635	0.0	1Suff w/o Lat.	12	64635	senseless	1.0	5.0	False
65.694	0.0	0Suff NW	4	65694	coyim	0.0	6.0	False
66.711	0.0	0Suff w/o Lat.	2	66711	danger	1.0	5.0	False
67.67	0.0	1Suff w/o Lat.	12	67670	computer	1.0	5.0	False
68.662	0.0	2Suff RealStemNW	25	68662	senseiously	0.0	6.0	False
70.145	0.0	1Suff w/o Lat.	12	70145	hasty	1.0	5.0	False
71.171	0.0	1Suff w/o Lat.	12	71171	momentary	1.0	5.0	False
72.805	0.0	1Suff RealStemNW	15	72805	cyclal	0.0	6.0	False
75.18	0.0	1Suff w/o Lat.	12	75180	regional	1.0	5.0	False
76.314	0.0	0Suff w/o Lat.	2	76314	expand	1.0	5.0	False
77.448	0.0	0Suff w/o Lat.	2	77448	argue	1.0	5.0	False
78.406	0.0	0Suff NW	4	78406	cutfure	0.0	6.0	False
79.957	0.0	1Suff w/o Lat.	12	79957	fortunate	1.0	5.0	False
80.982	0.0	2Suff Composite	23	80982	sensation	1.0	5.0	False
81.949	0.0	2Suff Composite	23	81949	penalization	1.0	5.0	False
83.408	0.0	0Suff w/o Lat.	2	83408	symbol	1.0	5.0	False
84.342	0.0	2Suff w/o Lat.	22	84342	dreadfully	1.0	5.0	False
85.409	0.0	2Suff w/o Lat.	22	85409	classical	1.0	5.0	False
86.592	0.0	1Suff PseudoStemNW	14	86592	vetcinate	0.0	6.0	False
87.926	0.0	2Suff w/o Lat.	22	87926	sensibility	1.0	5.0	False
89.21	0.0	2Suff PseudoStemNW	24	89210	janiability	0.0	6.0	False
90.352	0.0	1Suff PseudoStemNW	14	90352	arbument	0.0	6.0	False
91.56	0.0	2Suff w/o Lat.	22	91560	optically	1.0	5.0	False
92.644	0.0	2Suff w/o Lat.	22	92644	confidential	1.0	5.0	False
93.736	0.0	1Suff w/o Lat.	12	93736	helpless	1.0	5.0	False
94.87	0.0	0Suff w/ Lat.	1	94870	inspire	1.0	5.0	False
96.137	0.0	1Suff PseudoStemNW	14	96137	prosodure	0.0	6.0	False
97.912	0.0	2Suff RealStemNW	25	97912	ordinfully	0.0	6.0	False
99.071	0.0	2Suff PseudoStemNW	24	99071	murpifully	0.0	6.0	False
100.205	0.0	2Suff PseudoStemNW	24	100205	arresogical	0.0	6.0	False
101.413	0.0	2Suff PseudoStemNW	24	101413	pimerfully	0.0	6.0	False
102.522	0.0	2Suff w/o Lat.	22	102522	modernistic	1.0	6.0	False
103.989	0.0	1Suff w/ Lat.	11	103989	conductive	1.0	5.0	False
105.69	0.0	2Suff RealStemNW	25	105690	selfiveness	0.0	6.0	False
107.374	0.0	0Suff NW	4	107374	mocond	0.0	6.0	False
108.599	0.0	1Suff PseudoStemNW	14	108599	rincheous	0.0	6.0	False
109.974	0.0	2Suff PseudoStemNW	24	109974	movectistic	0.0	6.0	False
111.275	0.0	1Suff RealStemNW	15	111275	composian	0.0	6.0	False
112.425	0.0	0Suff w/ Lat.	1	112425	intend	1.0	5.0	False
113.467	0.0	1Suff w/o Lat.	12	113467	powerful	1.0	5.0	False
114.434	0.0	0Suff NW	4	114434	trith	0.0	6.0	False
115.643	0.0	0Suff w/o Lat.	2	115643	clinic	1.0	5.0	False
116.96	0.0	2Suff RealStemNW	25	116960	drunkoral	0.0	6.0	False
118.319	0.0	0Suff NW	4	118319	exfapt	0.0	6.0	False
119.569	0.0	2Suff w/o Lat.	22	119569	personalize	1.0	5.0	False
121.378	0.0	1Suff PseudoStemNW	14	121378	exfallent	0.0	6.0	False
122.287	0.0	2Suff w/ Lat.	21	122287	objectively	1.0	5.0	False
123.604	0.0	1Suff w/o Lat.	12	123604	joyful	1.0	5.0	False
124.737	0.0	0Suff NW	4	124737	ceant	0.0	6.0	False
126.196	0.0	2Suff w/ Lat.	21	126196	perfectionist	1.0	5.0	False
127.363	0.0	2Suff w/o Lat.	22	127363	activist	1.0	5.0	False
128.322	0.0	2Suff w/o Lat.	22	128322	powerfully	1.0	5.0	False
129.222	0.0	1Suff RealStemNW	15	129222	monumentic	0.0	5.0	False
131.123	0.0	0Suff w/o Lat.	2	131123	proceed	1.0	5.0	False
132.081	0.0	2Suff Composite	23	132081	annexation	1.0	5.0	False
133.207	0.0	2Suff Composite	23	133207	orientation	1.0	5.0	False
134.424	0.0	2Suff RealStemNW	25	134424	expansishness	0.0	6.0	False
135.716	0.0	2Suff PseudoStemNW	24	135716	booftifully	0.0	6.0	False
137.925	0.0	1Suff w/o Lat.	12	137925	dreadful	1.0	5.0	False
139.133	0.0	2Suff w/o Lat.	22	139133	collectively	1.0	5.0	False
140.275	0.0	2Suff w/o Lat.	22	140275	fertilization	1.0	5.0	False
141.367	0.0	0Suff NW	4	141367	meleft	0.0	6.0	False
142.493	0.0	2Suff RealStemNW	25	142493	actfully	0.0	6.0	False
144.085	0.0	1Suff RealStemNW	15	144085	tireable	0.0	6.0	False
146.069	0.0	0Suff NW	4	146069	nolfs	0.0	6.0	False
147.269	0.0	2Suff PseudoStemNW	24	147269	flivitualism	0.0	6.0	False
148.361	0.0	1Suff w/o Lat.	12	148361	selective	1.0	6.0	False
149.562	0.0	1Suff RealStemNW	15	149562	powerive	0.0	6.0	False
150.912	0.0	1Suff RealStemNW	15	150912	truthive	0.0	6.0	False
152.146	0.0	1Suff w/o Lat.	12	152146	methodical	1.0	5.0	False
153.238	0.0	1Suff w/ Lat.	11	153238	effective	1.0	5.0	False
154.23	0.0	0Suff w/o Lat.	2	154230	just	1.0	5.0	False
155.188	0.0	1Suff w/o Lat.	12	155188	collective	1.0	5.0	False
156.172	0.0	1Suff w/o Lat.	12	156172	sharpen	1.0	5.0	False
157.214	0.0	1Suff w/o Lat.	12	157214	hearty	1.0	5.0	False
158.539	0.0	2Suff w/o Lat.	22	158539	uselessly	1.0	5.0	False
159.598	0.0	2Suff Composite	23	159598	purification	1.0	5.0	False
160.873	0.0	2Suff RealStemNW	25	160873	inspiratality	0.0	6.0	False
162.991	0.0	0Suff NW	4	162991	hunen	0.0	6.0	False
164.124	0.0	2Suff Composite	23	164124	solidification	1.0	5.0	False
166.083	0.0	1Suff PseudoStemNW	14	166083	obwertion	0.0	6.0	False
167.575	0.0	0Suff NW	4	167575	nolave	0.0	6.0	False
168.784	0.0	2Suff PseudoStemNW	24	168784	rincheousness	0.0	6.0	False
170.801	0.0	2Suff RealStemNW	25	170801	computitely	0.0	6.0	False
172.352	0.0	2Suff RealStemNW	25	172352	lustery	0.0	6.0	False
174.044	0.0	0Suff w/o Lat.	2	174044	end	1.0	5.0	False
175.128	0.0	2Suff RealStemNW	25	175128	brutantly	0.0	6.0	False
176.953	0.0	0Suff NW	4	176953	pimer	0.0	6.0	False
178.17	0.0	2Suff PseudoStemNW	24	178170	pipsonality	0.0	6.0	False
179.512	0.0	2Suff w/o Lat.	22	179512	customarily	1.0	5.0	False
181.255	0.0	2Suff RealStemNW	25	181255	assertishness	0.0	6.0	False
183.397	0.0	2Suff RealStemNW	25	183397	exceptality	0.0	n/a	False
185.806	0.0	2Suff PseudoStemNW	24	185806	mourdfully	0.0	6.0	False
187.065	0.0	2Suff PseudoStemNW	24	187065	tistlessly	0.0	6.0	False
188.715	0.0	1Suff PseudoStemNW	14	188715	jokous	0.0	6.0	False
189.824	0.0	1Suff PseudoStemNW	14	189824	esressive	0.0	6.0	False
215.874	0.0	2Suff PseudoStemNW	24	215874	trithfulness	0.0	n/a	False
218.266	0.0	2Suff PseudoStemNW	24	218266	contitually	0.0	5.0	False
219.942	0.0	2Suff RealStemNW	25	219942	virtuerize	0.0	n/a	False
222.334	0.0	1Suff PseudoStemNW	14	222334	movectize	0.0	6.0	False
223.534	0.0	2Suff PseudoStemNW	24	223534	cheherably	0.0	6.0	False
225.41	0.0	2Suff w/o Lat.	22	225410	mournfully	1.0	5.0	False
226.952	0.0	2Suff RealStemNW	25	226952	selfiousness	0.0	5.0	False
228.536	0.0	1Suff PseudoStemNW	14	228536	ludsy	0.0	6.0	False
229.745	0.0	1Suff PseudoStemNW	14	229745	sothodical	0.0	6.0	False
231.503	0.0	2Suff PseudoStemNW	24	231503	hettfully	0.0	6.0	False
232.604	0.0	2Suff w/o Lat.	22	232604	sensibly	1.0	5.0	False
233.904	0.0	2Suff RealStemNW	25	233904	hierarchally	0.0	5.0	False
235.405	0.0	0Suff w/o Lat.	2	235405	passion	1.0	5.0	False
236.413	0.0	0Suff w/o Lat.	2	236413	master	1.0	5.0	False
237.522	0.0	2Suff PseudoStemNW	24	237522	perfallionist	0.0	6.0	False
238.756	0.0	1Suff RealStemNW	15	238756	conclusful	0.0	n/a	False
241.165	0.0	2Suff w/o Lat.	22	241165	truthfully	1.0	5.0	False
242.507	0.0	0Suff w/o Lat.	2	242507	instinct	1.0	5.0	False
243.549	0.0	1Suff w/o Lat.	12	243549	optical	1.0	5.0	False
244.616	0.0	1Suff PseudoStemNW	14	244616	janiable	0.0	6.0	False
245.716	0.0	2Suff w/ Lat.	21	245716	inspirational	1.0	5.0	False
247.358	0.0	2Suff RealStemNW	25	247358	noisery	0.0	6.0	False
249.184	0.0	1Suff RealStemNW	15	249184	modulion	0.0	n/a	False
251.585	0.0	0Suff NW	4	251585	rinch	0.0	6.0	False
252.977	0.0	2Suff RealStemNW	25	252977	actality	0.0	6.0	False
254.452	0.0	2Suff PseudoStemNW	24	254452	lurtilizer	0.0	n/a	False
256.845	0.0	2Suff PseudoStemNW	24	256845	cronitionally	0.0	6.0	False
258.078	0.0	0Suff NW	4	258078	darber	0.0	6.0	False
259.254	0.0	2Suff w/o Lat.	22	259254	selectivity	1.0	5.0	False
261.246	0.0	2Suff w/o Lat.	22	261246	feverishly	1.0	5.0	False
263.113	0.0	0Suff w/o Lat.	2	263113	respect	1.0	5.0	False
264.889	0.0	2Suff RealStemNW	25	264889	humanional	0.0	n/a	False
267.281	0.0	1Suff PseudoStemNW	14	267281	pipsonal	0.0	6.0	False
268.373	0.0	0Suff w/o Lat.	2	268373	need	1.0	5.0	False
269.649	0.0	0Suff NW	4	269649	podent	0.0	6.0	False
270.824	0.0	2Suff w/o Lat.	22	270824	fertilizer	1.0	5.0	False
272.083	0.0	2Suff w/o Lat.	22	272083	wonderfully	1.0	5.0	False
273.25	0.0	2Suff Composite	23	273250	classification	1.0	5.0	False
274.442	0.0	2Suff w/o Lat.	22	274442	heroically	1.0	5.0	False
275.975	0.0	2Suff w/o Lat.	22	275975	vaccination	1.0	5.0	False
277.076	0.0	0Suff NW	4	277076	luds	0.0	6.0	False
278.26	0.0	1Suff PseudoStemNW	14	278260	recrernive	0.0	6.0	False
279.518	0.0	1Suff w/ Lat.	11	279518	exception	1.0	5.0	False
280.552	0.0	0Suff w/ Lat.	1	280552	perfect	1.0	5.0	False
281.561	0.0	0Suff NW	4	281561	mympol	0.0	6.0	False
283.203	0.0	2Suff w/o Lat.	22	283203	actively	1.0	5.0	False
284.461	0.0	2Suff RealStemNW	25	284461	couragliness	0.0	6.0	False
286.47	0.0	0Suff NW	4	286470	allend	0.0	6.0	False
287.712	0.0	2Suff w/o Lat.	22	287712	measurably	1.0	5.0	False
288.913	0.0	1Suff PseudoStemNW	14	288913	elpardive	0.0	6.0	False
290.063	0.0	2Suff w/ Lat.	21	290063	effectiveness	1.0	5.0	False
291.405	0.0	2Suff PseudoStemNW	24	291405	rinchfully	0.0	6.0	False
292.681	0.0	2Suff w/ Lat.	21	292681	exclusively	1.0	5.0	False
294.006	0.0	2Suff PseudoStemNW	24	294006	atstartively	0.0	n/a	False
296.415	0.0	2Suff w/o Lat.	22	296415	heartily	1.0	5.0	False
297.549	0.0	1Suff RealStemNW	15	297549	helpable	0.0	6.0	False
299.041	0.0	2Suff RealStemNW	25	299041	clinicical	0.0	5.0	False
300.125	0.0	2Suff w/o Lat.	22	300125	carefully	1.0	5.0	False
301.133	0.0	2Suff w/o Lat.	22	301133	joyfully	1.0	5.0	False
302.05	0.0	0Suff NW	4	302050	abadill	0.0	6.0	False
303.167	0.0	1Suff RealStemNW	15	303167	legalist	0.0	6.0	False
304.534	0.0	2Suff w/o Lat.	22	304534	continually	1.0	5.0	False
305.668	0.0	0Suff NW	4	305668	greard	0.0	6.0	False
306.985	0.0	1Suff RealStemNW	15	306985	fruitable	0.0	6.0	False
308.302	0.0	1Suff w/o Lat.	12	308302	comfortable	1.0	5.0	False
309.311	0.0	1Suff w/o Lat.	12	309311	attractive	1.0	5.0	False
310.519	0.0	1Suff w/o Lat.	12	310519	monumental	1.0	5.0	False
311.778	0.0	0Suff w/o Lat.	2	311778	select	1.0	5.0	False
312.82	0.0	2Suff w/o Lat.	22	312820	slippery	1.0	5.0	False
313.77	0.0	0Suff w/o Lat.	2	313770	virtue	1.0	5.0	False
314.737	0.0	2Suff PseudoStemNW	24	314737	vetcination	0.0	6.0	False
316.021	0.0	1Suff PseudoStemNW	14	316021	griedy	0.0	6.0	False
317.463	0.0	0Suff w/o Lat.	2	317463	collect	1.0	5.0	False
318.497	0.0	0Suff w/o Lat.	2	318497	method	1.0	5.0	False
319.572	0.0	1Suff w/ Lat.	11	319572	excessive	1.0	6.0	False
320.706	0.0	1Suff PseudoStemNW	14	320706	herfal	0.0	6.0	False
321.948	0.0	2Suff w/o Lat.	22	321948	abolitionist	1.0	5.0	False
324.09	0.0	0Suff NW	4	324090	shact	0.0	6.0	False
325.316	0.0	1Suff RealStemNW	15	325316	effectful	0.0	6.0	False
327.291	0.0	1Suff PseudoStemNW	14	327291	arpive	0.0	6.0	False
328.383	0.0	2Suff PseudoStemNW	24	328383	mymbolically	0.0	6.0	False
329.05	0.0	2Suff Composite	23	329050	unification	1.0	5.0	False
330.276	0.0	2Suff w/o Lat.	22	330276	argumentative	1.0	5.0	False
331.643	0.0	1Suff RealStemNW	15	331643	comparatful	0.0	5.0	False
333.085	0.0	2Suff PseudoStemNW	24	333085	coyimally	0.0	6.0	False
334.235	0.0	2Suff PseudoStemNW	24	334235	andezation	0.0	6.0	False
335.61	0.0	0Suff NW	4	335610	byvre	0.0	6.0	False
336.819	0.0	0Suff NW	4	336819	selp	0.0	6.0	False
337.903	0.0	1Suff RealStemNW	15	337903	feverory	0.0	6.0	False
339.162	0.0	2Suff Composite	23	339162	synchronization	1.0	5.0	False
340.437	0.0	0Suff NW	4	340437	vectue	0.0	6.0	False
341.829	0.0	2Suff RealStemNW	25	341829	customantly	0.0	6.0	False
343.096	0.0	0Suff NW	4	343096	esress	0.0	6.0	False
344.922	0.0	0Suff NW	4	344922	seet	0.0	6.0	False
346.314	0.0	2Suff RealStemNW	25	346314	valufully	0.0	6.0	False
347.864	0.0	2Suff PseudoStemNW	24	347864	jokfully	0.0	6.0	False
349.498	0.0	0Suff w/o Lat.	2	349498	civil	1.0	5.0	False
350.623	0.0	2Suff Composite	23	350623	quizzical	1.0	5.0	False
351.682	0.0	0Suff NW	4	351682	selve	0.0	5.0	False
353.358	0.0	1Suff w/o Lat.	12	353358	clinical	1.0	5.0	False
354.833	0.0	2Suff Composite	23	354833	filtration	1.0	5.0	False
356.05	0.0	0Suff NW	4	356050	colliff	0.0	6.0	False
357.175	0.0	2Suff w/o Lat.	22	357175	rightfully	1.0	5.0	False
358.167	0.0	0Suff NW	4	358167	arp	0.0	6.0	False
359.134	0.0	0Suff w/ Lat.	1	359134	conduct	1.0	5.0	False
360.035	0.0	0Suff w/o Lat.	2	360035	create	1.0	5.0	False
361.01	0.0	2Suff PseudoStemNW	24	361010	darberously	0.0	6.0	False
362.202	0.0	2Suff PseudoStemNW	24	362202	efforniveness	0.0	6.0	False
363.619	0.0	2Suff Composite	23	363619	computation	1.0	6.0	False
364.97	0.0	2Suff RealStemNW	25	364970	useiously	0.0	6.0	False
366.128	0.0	0Suff w/o Lat.	2	366128	cease	1.0	5.0	False
367.27	0.0	2Suff RealStemNW	25	367270	foolality	0.0	6.0	False
368.554	0.0	0Suff w/o Lat.	2	368554	greed	1.0	5.0	False
369.554	0.0	0Suff w/o Lat.	2	369554	comfort	1.0	5.0	False
370.505	0.0	1Suff w/ Lat.	11	370505	composite	1.0	5.0	False
371.563	0.0	1Suff w/o Lat.	12	371563	wonderful	1.0	5.0	False
372.655	0.0	1Suff w/o Lat.	12	372655	victimize	1.0	5.0	False
373.831	0.0	2Suff PseudoStemNW	24	373831	mocondarily	0.0	6.0	False
375.006	0.0	1Suff w/o Lat.	12	375006	needless	1.0	5.0	False
376.998	0.0	0Suff NW	4	376998	contitum	0.0	6.0	False
378.124	0.0	2Suff w/o Lat.	22	378124	significant	1.0	5.0	False
379.107	0.0	0Suff w/o Lat.	2	379107	comic	1.0	5.0	False
380.091	0.0	1Suff w/o Lat.	12	380091	effortless	1.0	5.0	False
381.016	0.0	1Suff w/ Lat.	11	381016	intention	1.0	5.0	False
382.0	0.0	2Suff w/o Lat.	22	382000	assertiveness	1.0	5.0	False
383.258	0.0	2Suff RealStemNW	25	383258	noticeator	0.0	6.0	False
384.517	0.0	2Suff PseudoStemNW	24	384517	perfallionism	0.0	6.0	False
385.584	0.0	0Suff w/o Lat.	2	385584	fruit	1.0	5.0	False
386.551	0.0	0Suff NW	4	386551	conspode	0.0	6.0	False
387.627	0.0	1Suff RealStemNW	15	387627	exclusful	0.0	6.0	False
388.819	0.0	0Suff NW	4	388819	combure	0.0	6.0	False
389.836	0.0	1Suff PseudoStemNW	14	389836	jokful	0.0	6.0	False
390.819	0.0	0Suff w/o Lat.	2	390819	wonder	1.0	5.0	False
392.028	0.0	2Suff RealStemNW	25	392028	farcally	0.0	6.0	False
393.595	0.0	2Suff RealStemNW	25	393595	brutional	0.0	6.0	False
395.012	0.0	0Suff w/o Lat.	2	395012	kind	1.0	5.0	False
396.062	0.0	2Suff PseudoStemNW	24	396062	jistifiable	0.0	6.0	False
397.413	0.0	2Suff Composite	23	397413	limitation	1.0	5.0	False
398.405	0.0	2Suff w/o Lat.	22	398405	artistic	1.0	5.0	False
399.564	0.0	2Suff w/o Lat.	22	399564	computerize	1.0	5.0	False
400.555	0.0	2Suff w/o Lat.	22	400555	ceaselessly	1.0	5.0	False
402.064	0.0	2Suff w/o Lat.	22	402064	magically	1.0	5.0	False
403.09	0.0	0Suff NW	4	403090	traphet	0.0	6.0	False
404.215	0.0	2Suff w/o Lat.	22	404215	truthfulness	1.0	5.0	False
405.207	0.0	1Suff RealStemNW	15	405207	passionion	0.0	6.0	False
406.766	0.0	2Suff w/o Lat.	22	406766	personality	1.0	5.0	False
408.074	0.0	0Suff NW	4	408074	herf	0.0	6.0	False
409.008	0.0	2Suff w/o Lat.	22	409008	secondarily	1.0	5.0	False
409.958	0.0	0Suff w/o Lat.	2	409958	beauty	1.0	5.0	False
410.975	0.0	2Suff Composite	23	410975	fortification	1.0	5.0	False
412.076	0.0	2Suff PseudoStemNW	24	412076	inglinitional	0.0	6.0	False
413.259	0.0	0Suff NW	4	413259	murpy	0.0	6.0	False
414.518	0.0	0Suff NW	4	414518	prosood	0.0	6.0	False
415.61	0.0	1Suff w/o Lat.	12	415610	feverish	1.0	5.0	False
416.635	0.0	2Suff w/o Lat.	22	416635	nationalist	1.0	5.0	False
418.019	0.0	2Suff RealStemNW	25	418019	voyeurional	0.0	6.0	False
419.453	0.0	1Suff PseudoStemNW	14	419453	onnention	0.0	6.0	False
420.72	0.0	0Suff NW	4	420720	onnend	0.0	6.0	False
421.962	0.0	2Suff w/o Lat.	22	421962	spiritualism	1.0	5.0	False
422.929	0.0	1Suff PseudoStemNW	14	422929	rebuinal	0.0	6.0	False
424.555	0.0	2Suff w/o Lat.	22	424555	stylistic	1.0	5.0	False
425.73	0.0	2Suff RealStemNW	25	425730	actional	0.0	6.0	False
427.114	0.0	2Suff RealStemNW	25	427114	endiously	0.0	6.0	False
429.381	0.0	1Suff w/o Lat.	12	429381	continual	1.0	5.0	False
430.781	0.0	2Suff w/o Lat.	22	430781	respectively	1.0	5.0	False
431.732	0.0	2Suff PseudoStemNW	24	431732	comfernably	0.0	6.0	False
432.94	0.0	1Suff w/o Lat.	12	432940	helpful	1.0	5.0	False
433.916	0.0	2Suff PseudoStemNW	24	433916	foffification	0.0	6.0	False
435.141	0.0	2Suff PseudoStemNW	24	435141	shactener	0.0	6.0	False
436.308	0.0	2Suff w/o Lat.	22	436308	foolishly	1.0	5.0	False
437.35	0.0	1Suff w/o Lat.	12	437350	beautiful	1.0	5.0	False
438.509	0.0	2Suff w/o Lat.	22	438509	excellently	1.0	6.0	False
439.784	0.0	0Suff NW	4	439784	haint	0.0	5.0	False
440.885	0.0	0Suff NW	4	440885	indolsty	0.0	6.0	False
441.977	0.0	0Suff w/o Lat.	2	441977	victim	1.0	5.0	False
442.944	0.0	0Suff w/o Lat.	2	442944	sign	1.0	5.0	False
443.885	0.0	1Suff w/o Lat.	12	443885	kindly	1.0	5.0	False
444.827	0.0	2Suff PseudoStemNW	24	444827	melidification	0.0	6.0	False
446.186	0.0	1Suff PseudoStemNW	14	446186	traphetic	0.0	6.0	False
447.287	0.0	2Suff PseudoStemNW	24	447287	hettlessly	0.0	6.0	False
448.47	0.0	2Suff w/ Lat.	21	448470	exclusiveness	1.0	5.0	False
449.762	0.0	1Suff w/o Lat.	12	449762	fearful	1.0	5.0	False
450.738	0.0	2Suff RealStemNW	25	450738	creatously	0.0	5.0	False
451.73	0.0	0Suff NW	4	451730	boofty	0.0	6.0	False
452.872	0.0	2Suff w/o Lat.	22	452872	monumentally	1.0	5.0	False
454.189	0.0	1Suff PseudoStemNW	14	454189	desterful	0.0	6.0	False
455.364	0.0	1Suff RealStemNW	15	455364	kinden	0.0	6.0	False
456.781	0.0	1Suff PseudoStemNW	14	456781	obwertive	0.0	6.0	False
457.848	0.0	0Suff w/ Lat.	1	457848	object	1.0	5.0	False
459.065	0.0	0Suff NW	4	459065	spip	0.0	6.0	False
460.19	0.0	0Suff NW	4	460190	comfern	0.0	6.0	False
461.733	0.0	0Suff NW	4	461733	arbub	0.0	6.0	False
462.908	0.0	2Suff Composite	23	462908	identification	1.0	5.0	False
464.092	0.0	0Suff w/o Lat.	2	464092	critic	1.0	5.0	False
465.225	0.0	1Suff RealStemNW	15	465225	justant	0.0	6.0	False
466.701	0.0	1Suff RealStemNW	15	466701	nationic	0.0	6.0	False
468.543	0.0	1Suff w/o Lat.	12	468543	confidence	1.0	5.0	False
469.61	0.0	0Suff NW	4	469610	adnise	0.0	6.0	False
471.327	0.0	2Suff w/o Lat.	22	471327	greedily	1.0	5.0	False
472.361	0.0	0Suff w/o Lat.	2	472361	cycle	1.0	5.0	False
473.536	0.0	1Suff RealStemNW	15	473536	creatful	0.0	6.0	False
474.953	0.0	2Suff PseudoStemNW	24	474953	utiethation	0.0	6.0	False
476.195	0.0	0Suff NW	4	476195	massien	0.0	6.0	False
477.187	0.0	0Suff w/o Lat.	2	477187	care	1.0	5.0	False
478.271	0.0	0Suff w/o Lat.	2	478271	modern	1.0	5.0	False
479.246	0.0	1Suff RealStemNW	15	479246	collectful	0.0	5.0	False
480.205	0.0	2Suff PseudoStemNW	24	480205	murpilessly	0.0	6.0	False
481.422	0.0	0Suff w/o Lat.	2	481422	spirit	1.0	5.0	False
482.431	0.0	1Suff RealStemNW	15	482431	mercyive	0.0	6.0	False
483.598	0.0	1Suff RealStemNW	15	483598	careive	0.0	6.0	False
484.656	0.0	1Suff PseudoStemNW	14	484656	indless	0.0	6.0	False
485.882	0.0	1Suff w/o Lat.	12	485882	admirable	1.0	5.0	False
487.015	0.0	1Suff RealStemNW	15	487015	selectful	0.0	5.0	False
487.999	0.0	2Suff w/o Lat.	22	487999	sensuality	1.0	5.0	False
489.233	0.0	0Suff NW	4	489233	indlidst	0.0	5.0	False
490.391	0.0	1Suff w/o Lat.	12	490391	procedure	1.0	5.0	False
491.417	0.0	0Suff NW	4	491417	nead	0.0	6.0	False
492.517	0.0	2Suff Composite	23	492517	vulgarization	1.0	6.0	False
494.318	0.0	1Suff RealStemNW	15	494318	commerceic	0.0	6.0	False
495.776	0.0	1Suff PseudoStemNW	14	495776	allendive	0.0	6.0	False
496.727	0.0	0Suff NW	4	496727	healt	0.0	6.0	False
497.835	0.0	1Suff PseudoStemNW	14	497835	crerical	0.0	6.0	False
498.786	0.0	0Suff NW	4	498786	lums	0.0	6.0	False
499.861	0.0	1Suff RealStemNW	15	499861	purant	0.0	6.0	False
501.745	0.0	1Suff w/o Lat.	12	501745	noisy	1.0	5.0	False
502.995	0.0	1Suff w/o Lat.	12	502995	fertilize	1.0	5.0	False
503.962	0.0	2Suff PseudoStemNW	24	503962	feamfully	0.0	6.0	False
505.063	0.0	2Suff w/o Lat.	22	505063	carelessness	1.0	5.0	False
506.221	0.0	0Suff NW	4	506221	blunk	0.0	6.0	False
507.222	0.0	2Suff PseudoStemNW	24	507222	provacional	0.0	6.0	False
508.414	0.0	2Suff PseudoStemNW	24	508414	retendlessly	0.0	6.0	False
509.389	0.0	1Suff w/o Lat.	12	509389	breathless	1.0	5.0	False
510.398	0.0	1Suff w/o Lat.	12	510398	argument	1.0	5.0	False
511.665	0.0	2Suff RealStemNW	25	511665	effortiously	0.0	5.0	False
512.682	0.0	2Suff RealStemNW	25	512682	vulgarilessly	0.0	6.0	False
514.082	0.0	2Suff PseudoStemNW	24	514082	massienately	0.0	6.0	False
515.599	0.0	2Suff PseudoStemNW	24	515599	pogularization	0.0	6.0	False
517.283	0.0	1Suff PseudoStemNW	14	517283	shacten	0.0	6.0	False
520.092	0.0	0Suff w/o Lat.	2	520092	fertile	1.0	5.0	False
521.226	0.0	1Suff RealStemNW	15	521226	drunkor	0.0	6.0	False
522.201	0.0	1Suff PseudoStemNW	14	522201	contituous	0.0	6.0	False
524.194	0.0	2Suff RealStemNW	25	524194	ownmental	0.0	6.0	False
525.494	0.0	2Suff RealStemNW	25	525494	intentality	0.0	6.0	False
526.728	0.0	0Suff w/o Lat.	2	526728	suit	1.0	5.0	False
527.745	0.0	0Suff w/o Lat.	2	527745	courage	1.0	5.0	False
528.662	0.0	1Suff RealStemNW	15	528662	fertilist	0.0	6.0	False
530.395	0.0	0Suff w/o Lat.	2	530395	tire	1.0	5.0	False
531.437	0.0	2Suff Composite	23	531437	allegorical	1.0	6.0	False
532.571	0.0	2Suff PseudoStemNW	24	532571	selvation	0.0	6.0	False
533.88	0.0	1Suff RealStemNW	15	533880	stylify	0.0	6.0	False
535.472	0.0	2Suff PseudoStemNW	24	535472	herfalist	0.0	6.0	False
536.614	0.0	1Suff w/o Lat.	12	536614	relentless	1.0	5.0	False
537.881	0.0	1Suff w/o Lat.	12	537881	instinctive	1.0	6.0	False
538.94	0.0	2Suff RealStemNW	25	538940	joyality	0.0	6.0	False
540.365	0.0	2Suff w/o Lat.	22	540365	fortunately	1.0	5.0	False
541.616	0.0	2Suff RealStemNW	25	541616	prophetionist	0.0	6.0	False
543.183	0.0	0Suff NW	4	543183	sarument	0.0	6.0	False
544.358	0.0	2Suff w/o Lat.	22	544358	commercialize	1.0	5.0	False
545.817	0.0	2Suff w/o Lat.	22	545817	noticeably	1.0	5.0	False
546.867	0.0	1Suff PseudoStemNW	14	546867	comfernable	0.0	6.0	False
548.017	0.0	1Suff PseudoStemNW	14	548017	orner	0.0	6.0	False
549.143	0.0	0Suff NW	4	549143	precuke	0.0	6.0	False
550.093	0.0	0Suff w/o Lat.	2	550093	tactic	1.0	5.0	False
551.21	0.0	2Suff PseudoStemNW	24	551210	foptration	0.0	6.0	False
552.252	0.0	2Suff w/o Lat.	22	552252	regionally	1.0	5.0	False
553.911	0.0	2Suff w/o Lat.	22	553911	relentlessly	1.0	5.0	False
555.103	0.0	0Suff w/ Lat.	1	555103	effect	1.0	5.0	False
556.053	0.0	2Suff w/o Lat.	22	556053	fruitlessly	1.0	5.0	False
557.02	0.0	1Suff w/o Lat.	12	557020	falsify	1.0	5.0	False
558.287	0.0	1Suff w/o Lat.	12	558287	selfless	1.0	5.0	False
559.413	0.0	2Suff w/o Lat.	22	559413	tactically	1.0	5.0	False
560.446	0.0	2Suff RealStemNW	25	560446	causional	0.0	6.0	False
561.988	0.0	1Suff w/o Lat.	12	561988	traditional	1.0	5.0	False
562.972	0.0	0Suff w/o Lat.	2	562972	power	1.0	5.0	False
563.897	0.0	0Suff w/o Lat.	2	563897	vaccine	1.0	5.0	False
564.956	0.0	2Suff RealStemNW	25	564956	criticical	0.0	5.0	False
565.973	0.0	0Suff NW	4	565973	jany	0.0	6.0	False
567.057	0.0	2Suff PseudoStemNW	24	567057	sothodically	0.0	6.0	False
568.249	0.0	1Suff w/o Lat.	12	568249	sensual	1.0	5.0	False
569.324	0.0	2Suff RealStemNW	25	569324	whimsally	0.0	6.0	False
570.808	0.0	1Suff w/ Lat.	11	570808	objection	1.0	5.0	False
571.808	0.0	1Suff w/ Lat.	11	571808	explosive	1.0	5.0	False
572.85	0.0	1Suff w/o Lat.	12	572850	brutal	1.0	5.0	False
573.792	0.0	1Suff w/o Lat.	12	573792	comparative	1.0	5.0	False
575.176	0.0	2Suff w/o Lat.	22	575176	admirably	1.0	5.0	False
576.31	0.0	2Suff w/o Lat.	22	576310	attractively	1.0	5.0	False
577.66	0.0	2Suff w/o Lat.	22	577660	commercialism	1.0	n/a	False
580.061	0.0	2Suff Composite	23	580061	embarkation	1.0	5.0	False
581.861	0.0	0Suff w/o Lat.	2	581861	magic	1.0	5.0	False
582.862	0.0	2Suff w/o Lat.	22	582862	modulation	1.0	5.0	False
584.262	0.0	0Suff w/o Lat.	2	584262	fever	1.0	5.0	False
585.229	0.0	2Suff w/o Lat.	22	585229	usefulness	1.0	5.0	False
586.313	0.0	2Suff w/o Lat.	22	586313	righteousness	1.0	5.0	False
587.713	0.0	2Suff RealStemNW	25	587713	victimilessly	0.0	5.0	False
588.772	0.0	2Suff w/o Lat.	22	588772	expansiveness	1.0	5.0	False
589.88	0.0	0Suff NW	4	589880	feal	0.0	6.0	False
591.181	0.0	0Suff NW	4	591181	gried	0.0	6.0	False
592.356	0.0	0Suff NW	4	592356	rebuin	0.0	6.0	False
593.423	0.0	2Suff w/ Lat.	21	593423	conductivity	1.0	5.0	False
594.54	0.0	0Suff w/o Lat.	2	594540	region	1.0	5.0	False
595.607	0.0	1Suff w/o Lat.	12	595607	owner	1.0	5.0	False
596.649	0.0	1Suff w/o Lat.	12	596649	prophetic	1.0	5.0	False
597.799	0.0	1Suff PseudoStemNW	14	597799	atstartive	0.0	5.0	False
599.433	0.0	0Suff w/o Lat.	2	599433	person	1.0	5.0	False
600.475	0.0	1Suff PseudoStemNW	14	600475	brealtless	0.0	6.0	False
601.909	0.0	2Suff RealStemNW	25	601909	industriantly	0.0	6.0	False
604.01	0.0	0Suff w/o Lat.	2	604010	mourn	1.0	5.0	False
605.06	0.0	1Suff w/o Lat.	12	605060	suitable	1.0	5.0	False
606.144	0.0	0Suff NW	4	606144	pacic	0.0	6.0	False
608.186	0.0	2Suff w/ Lat.	21	608186	explosively	1.0	5.0	False
610.162	0.0	2Suff w/o Lat.	22	610162	preferably	1.0	5.0	False
611.745	0.0	1Suff w/o Lat.	12	611745	national	1.0	5.0	False
612.862	0.0	2Suff w/o Lat.	22	612862	spirituality	1.0	5.0	False
613.879	0.0	2Suff w/o Lat.	22	613879	senselessly	1.0	5.0	False
615.005	0.0	1Suff w/o Lat.	12	615005	modulate	1.0	5.0	False
616.222	0.0	0Suff w/o Lat.	2	616222	continue	1.0	5.0	False
617.172	0.0	0Suff w/o Lat.	2	617172	excel	1.0	5.0	False
618.147	0.0	1Suff PseudoStemNW	14	618147	awnful	0.0	6.0	False
619.589	0.0	2Suff PseudoStemNW	24	619589	connurtivity	0.0	6.0	False
620.823	0.0	2Suff Composite	23	620823	identical	1.0	5.0	False
621.815	0.0	0Suff NW	4	621815	ewils	0.0	6.0	False
622.932	0.0	2Suff w/o Lat.	22	622932	lustily	1.0	5.0	False
624.058	0.0	0Suff w/o Lat.	2	624058	truth	1.0	5.0	False
625.108	0.0	1Suff RealStemNW	15	625108	fearive	0.0	5.0	False
626.425	0.0	2Suff w/ Lat.	21	626425	perfectionism	1.0	5.0	False
627.934	0.0	2Suff w/ Lat.	21	627934	objectionable	1.0	5.0	False
629.267	0.0	1Suff PseudoStemNW	14	629267	londly	0.0	6.0	False
630.384	0.0	2Suff Composite	23	630384	degradation	1.0	5.0	False
631.527	0.0	1Suff PseudoStemNW	14	631527	selvible	0.0	6.0	False
633.052	0.0	2Suff w/o Lat.	22	633052	comically	1.0	5.0	False
634.152	0.0	0Suff NW	4	634152	inglinite	0.0	6.0	False
635.344	0.0	1Suff w/o Lat.	12	635344	critical	1.0	5.0	False
636.461	0.0	2Suff w/o Lat.	22	636461	activity	1.0	5.0	False
637.912	0.0	2Suff w/ Lat.	21	637912	presumably	1.0	5.0	False
638.979	0.0	0Suff w/o Lat.	2	638979	prefer	1.0	5.0	False
640.104	0.0	1Suff w/ Lat.	11	640104	exclusive	1.0	5.0	False
641.255	0.0	1Suff PseudoStemNW	14	641255	omlical	0.0	6.0	False
642.363	0.0	2Suff w/o Lat.	22	642363	artfully	1.0	5.0	False
643.464	0.0	2Suff w/o Lat.	22	643464	causality	1.0	5.0	False
644.681	0.0	1Suff PseudoStemNW	14	644681	expredive	0.0	6.0	False
645.247	0.0	0Suff w/o Lat.	2	645247	confide	1.0	5.0	False
646.606	0.0	2Suff RealStemNW	25	646606	hastery	0.0	6.0	False
647.982	0.0	1Suff PseudoStemNW	14	647982	flivitual	0.0	6.0	False
649.449	0.0	1Suff RealStemNW	15	649449	causic	0.0	6.0	False
650.891	0.0	2Suff RealStemNW	25	650891	identifilessly	0.0	6.0	False
652.333	0.0	0Suff NW	4	652333	slex	0.0	6.0	False
653.817	0.0	0Suff w/o Lat.	2	653817	compare	1.0	5.0	False
655.067	0.0	2Suff RealStemNW	25	655067	selectously	0.0	6.0	False
656.676	0.0	2Suff w/o Lat.	22	656676	justification	1.0	5.0	False
657.885	0.0	1Suff w/o Lat.	12	657885	truthful	1.0	5.0	False
658.902	0.0	1Suff w/o Lat.	12	658902	artful	1.0	5.0	False
660.127	0.0	1Suff w/o Lat.	12	660127	abolition	1.0	5.0	False
661.569	0.0	2Suff RealStemNW	25	661569	heroliness	0.0	6.0	False
663.386	0.0	0Suff w/o Lat.	2	663386	FALSE	1.0	5.0	False
665.362	0.0	2Suff w/o Lat.	22	665362	foolishness	1.0	5.0	False
666.396	0.0	0Suff w/o Lat.	2	666396	self	1.0	5.0	False
667.296	0.0	2Suff RealStemNW	25	667296	ceaseiously	0.0	5.0	False
670.122	0.0	0Suff NW	4	670122	coatage	0.0	6.0	False
671.497	0.0	0Suff NW	4	671497	excrode	0.0	6.0	False
672.873	0.0	1Suff w/o Lat.	12	672873	continuous	1.0	5.0	False
673.94	0.0	0Suff w/o Lat.	2	673940	fortune	1.0	5.0	False
674.865	0.0	2Suff w/o Lat.	22	674865	fearfully	1.0	5.0	False
675.807	0.0	0Suff NW	4	675807	provace	0.0	6.0	False
677.099	0.0	1Suff w/o Lat.	12	677099	courageous	1.0	5.0	False
678.057	0.0	0Suff NW	4	678057	lurtile	0.0	6.0	False
679.483	0.0	1Suff w/o Lat.	12	679483	personal	1.0	5.0	False
680.533	0.0	2Suff w/o Lat.	22	680533	falsification	1.0	5.0	False
681.625	0.0	2Suff RealStemNW	25	681625	fooliveness	0.0	6.0	False
683.001	0.0	2Suff PseudoStemNW	24	683001	cladsification	0.0	n/a	False
685.401	0.0	2Suff PseudoStemNW	24	685401	sedulation	0.0	6.0	False
686.71	0.0	2Suff RealStemNW	25	686710	respectfully	0.0	5.0	False
688.061	0.0	2Suff PseudoStemNW	24	688061	comberatively	0.0	6.0	False
689.244	0.0	0Suff w/o Lat.	2	689244	own	1.0	5.0	False
690.528	0.0	2Suff w/o Lat.	22	690528	symbolically	1.0	5.0	False
691.612	0.0	1Suff w/o Lat.	12	691612	lonely	1.0	5.0	False
692.52	0.0	0Suff NW	4	692520	orn	0.0	6.0	False
693.629	0.0	0Suff NW	4	693629	obwert	0.0	6.0	False
694.821	0.0	2Suff w/o Lat.	22	694821	modernization	1.0	5.0	False
695.846	0.0	0Suff w/o Lat.	2	695846	attend	1.0	5.0	False
696.822	0.0	1Suff RealStemNW	15	696822	institutate	0.0	5.0	False
698.147	0.0	2Suff PseudoStemNW	24	698147	soripsistic	0.0	6.0	False
699.497	0.0	2Suff w/o Lat.	22	699497	mercilessly	1.0	5.0	False
700.614	0.0	0Suff NW	4	700614	efforn	0.0	6.0	False
701.848	0.0	2Suff w/o Lat.	22	701848	clinically	1.0	5.0	False
702.923	0.0	2Suff PseudoStemNW	24	702923	awnfully	0.0	6.0	False
704.399	0.0	2Suff w/o Lat.	22	704399	mercifully	1.0	5.0	False
705.491	0.0	2Suff w/ Lat.	21	705491	intentional	1.0	5.0	False
707.492	0.0	2Suff w/o Lat.	22	707492	attentively	1.0	5.0	False
708.925	0.0	0Suff w/o Lat.	2	708925	breath	1.0	5.0	False
709.867	0.0	1Suff RealStemNW	15	709867	admirless	0.0	5.0	False
712.268	0.0	2Suff Composite	23	712268	voyeuristic	1.0	5.0	False
713.702	0.0	2Suff PseudoStemNW	24	713702	colliffively	0.0	6.0	False
714.935	0.0	2Suff w/o Lat.	22	714935	flexibility	1.0	5.0	False
715.927	0.0	1Suff w/o Lat.	12	715927	selfish	1.0	5.0	False
716.894	0.0	2Suff w/o Lat.	22	716894	sharpener	1.0	5.0	False
717.82	0.0	1Suff PseudoStemNW	14	717820	awnist	0.0	6.0	False
719.045	0.0	0Suff NW	4	719045	fortord	0.0	6.0	False
720.204	0.0	2Suff PseudoStemNW	24	720204	navounality	0.0	6.0	False
721.446	0.0	2Suff PseudoStemNW	24	721446	cankfully	0.0	6.0	False
722.58	0.0	0Suff w/o Lat.	2	722580	fear	1.0	5.0	False
723.605	0.0	0Suff w/o Lat.	2	723605	effort	1.0	5.0	False
724.747	0.0	0Suff NW	4	724747	combore	0.0	6.0	False
726.556	0.0	0Suff w/o Lat.	2	726556	herb	1.0	5.0	False
727.589	0.0	0Suff w/o Lat.	2	727589	assert	1.0	5.0	False
728.715	0.0	0Suff NW	4	728715	cheher	0.0	6.0	False
729.848	0.0	0Suff w/o Lat.	2	729848	nation	1.0	5.0	False
731.007	0.0	1Suff RealStemNW	15	731007	abolitate	0.0	6.0	False
732.458	0.0	2Suff RealStemNW	25	732458	fruitiously	0.0	6.0	False
733.816	0.0	2Suff RealStemNW	25	733816	dergadfully	0.0	n/a	False
736.217	0.0	0Suff w/o Lat.	2	736217	module	1.0	5.0	False
737.234	0.0	1Suff RealStemNW	15	737234	magicic	0.0	6.0	False
738.618	0.0	1Suff PseudoStemNW	14	738618	moolurable	0.0	6.0	False
739.91	0.0	2Suff PseudoStemNW	24	739910	fortorately	0.0	6.0	False
741.027	0.0	0Suff NW	4	741027	combere	0.0	6.0	False
742.077	0.0	0Suff NW	4	742077	atstart	0.0	6.0	False
743.002	0.0	2Suff w/o Lat.	22	743002	comparatively	1.0	5.0	False
744.503	0.0	2Suff RealStemNW	25	744503	loneionist	0.0	6.0	False
746.037	0.0	1Suff RealStemNW	15	746037	foolory	0.0	n/a	False
748.429	0.0	2Suff PseudoStemNW	24	748429	navounalism	0.0	6.0	False
750.288	0.0	2Suff RealStemNW	25	750288	sensator	0.0	6.0	False
751.713	0.0	2Suff Composite	23	751713	nullification	1.0	5.0	False
753.706	0.0	2Suff PseudoStemNW	24	753706	byvrical	0.0	6.0	False
755.406	0.0	0Suff NW	4	755406	effern	0.0	6.0	False
756.557	0.0	2Suff w/o Lat.	22	756557	courageously	1.0	5.0	False
757.69	0.0	2Suff RealStemNW	25	757690	neediously	0.0	6.0	False
758.774	0.0	2Suff w/o Lat.	22	758774	nationally	1.0	5.0	False
760.491	0.0	0Suff NW	4	760491	ind	0.0	6.0	False
761.758	0.0	1Suff RealStemNW	15	761758	traditionic	0.0	6.0	False
763.217	0.0	2Suff PseudoStemNW	24	763217	abadilionist	0.0	6.0	False
764.317	0.0	1Suff PseudoStemNW	14	764317	precukable	0.0	6.0	False
765.359	0.0	1Suff PseudoStemNW	14	765359	indlidstive	0.0	6.0	False
766.96	0.0	0Suff NW	4	766960	cank	0.0	6.0	False
768.11	0.0	1Suff RealStemNW	15	768110	variment	0.0	6.0	False
769.202	0.0	2Suff PseudoStemNW	24	769202	kibsliness	0.0	6.0	False
770.361	0.0	2Suff PseudoStemNW	24	770361	hettlessness	0.0	6.0	False
771.695	0.0	0Suff NW	4	771695	cronition	0.0	6.0	False
772.687	0.0	2Suff RealStemNW	25	772687	instinctfully	0.0	5.0	False
774.704	0.0	2Suff w/o Lat.	22	774704	procedural	1.0	5.0	False
776.338	0.0	0Suff w/o Lat.	2	776338	joy	1.0	5.0	False
777.305	0.0	2Suff w/o Lat.	22	777305	legalization	1.0	5.0	False
778.297	0.0	0Suff w/o Lat.	2	778297	monument	1.0	5.0	False
779.372	0.0	0Suff NW	4	779372	bruke	0.0	6.0	False
780.489	0.0	0Suff NW	4	780489	hett	0.0	6.0	False
781.598	0.0	1Suff RealStemNW	15	781598	victimist	0.0	6.0	False
783.098	0.0	0Suff NW	4	783098	clade	0.0	6.0	False
784.082	0.0	0Suff w/ Lat.	1	784082	institute	1.0	5.0	False
785.407	0.0	1Suff w/o Lat.	12	785407	cyclic	1.0	5.0	False
787.758	0.0	2Suff w/o Lat.	22	787758	critically	1.0	5.0	False
788.808	0.0	2Suff RealStemNW	25	788808	nullifilessly	0.0	6.0	False
790.334	0.0	1Suff w/o Lat.	12	790334	assertive	1.0	5.0	False
791.434	0.0	2Suff w/o Lat.	22	791434	instinctively	1.0	5.0	False
792.634	0.0	0Suff w/ Lat.	1	792634	provide	1.0	5.0	False
793.61	0.0	2Suff RealStemNW	25	793610	opticical	0.0	5.0	False
794.585	0.0	2Suff RealStemNW	25	794585	synchronilessly	0.0	6.0	False
796.094	0.0	0Suff w/ Lat.	1	796094	compose	1.0	5.0	False
797.086	0.0	2Suff Composite	23	797086	secularization	1.0	5.0	False
799.003	0.0	1Suff w/o Lat.	12	799003	passionate	1.0	5.0	False
800.053	0.0	1Suff PseudoStemNW	14	800053	eschession	0.0	6.0	False
801.612	0.0	2Suff PseudoStemNW	24	801612	ludsily	0.0	6.0	False
802.646	0.0	0Suff w/o Lat.	2	802646	love	1.0	5.0	False
803.754	0.0	1Suff w/o Lat.	12	803754	herbal	1.0	5.0	False
804.913	0.0	1Suff PseudoStemNW	14	804913	cuppomary	0.0	6.0	False
806.489	0.0	0Suff NW	4	806489	tist	0.0	6.0	False
807.714	0.0	2Suff w/o Lat.	22	807714	variability	1.0	5.0	False
808.856	0.0	0Suff NW	4	808856	retend	0.0	6.0	False
810.106	0.0	1Suff w/ Lat.	11	810106	presumable	1.0	5.0	False
811.348	0.0	0Suff w/ Lat.	1	811348	except	1.0	5.0	False
812.399	0.0	1Suff RealStemNW	15	812399	perfectate	0.0	6.0	False
814.649	0.0	2Suff RealStemNW	25	814649	continliness	0.0	6.0	False
816.15	0.0	1Suff w/ Lat.	11	816150	perfection	1.0	5.0	False
817.259	0.0	2Suff RealStemNW	25	817259	nationical	0.0	6.0	False
819.309	0.0	1Suff RealStemNW	15	819309	civilist	0.0	n/a	False
821.718	0.0	2Suff w/o Lat.	22	821718	humanistic	1.0	5.0	False
822.819	0.0	2Suff w/o Lat.	22	822819	nationality	1.0	5.0	False
824.111	0.0	2Suff PseudoStemNW	24	824111	canklessly	0.0	6.0	False
825.353	0.0	1Suff w/o Lat.	12	825353	modernize	1.0	5.0	False
831.488	0.0	1Suff RealStemNW	15	831488	fortunion	0.0	6.0	False
832.73	0.0	1Suff w/o Lat.	12	832730	noticeable	1.0	5.0	False
833.714	0.0	2Suff PseudoStemNW	24	833714	jistification	0.0	6.0	False
835.197	0.0	2Suff PseudoStemNW	24	835197	pipsonally	0.0	6.0	False
836.44	0.0	0Suff NW	4	836440	exfal	0.0	6.0	False
837.44	0.0	1Suff w/o Lat.	12	837440	slipper	1.0	5.0	False
838.865	0.0	1Suff w/o Lat.	12	838865	legalize	1.0	5.0	False
840.024	0.0	2Suff Composite	23	840024	probation	1.0	5.0	False
841.366	0.0	2Suff RealStemNW	25	841366	expressmental	0.0	5.0	False
843.275	0.0	2Suff w/o Lat.	22	843275	dangerously	1.0	5.0	False
844.234	0.0	1Suff w/o Lat.	12	844234	spiritual	1.0	5.0	False
845.301	0.0	2Suff w/o Lat.	22	845301	helplessness	1.0	5.0	False
846.459	0.0	2Suff w/o Lat.	22	846459	drunkenly	1.0	5.0	False
847.551	0.0	2Suff w/o Lat.	22	847551	ownership	1.0	5.0	False
848.477	0.0	0Suff NW	4	848477	kibs	0.0	6.0	False
849.694	0.0	2Suff PseudoStemNW	24	849694	flivituality	0.0	6.0	False
851.311	0.0	2Suff w/o Lat.	22	851311	loneliness	1.0	6.0	False
852.528	0.0	0Suff NW	4	852528	creric	0.0	6.0	False
853.837	0.0	1Suff RealStemNW	15	853837	assertful	0.0	5.0	False
855.404	0.0	1Suff w/o Lat.	12	855404	careful	1.0	5.0	False
856.312	0.0	0Suff w/o Lat.	2	856312	human	1.0	5.0	False
857.246	0.0	2Suff PseudoStemNW	24	857246	paragewical	0.0	6.0	False
858.855	0.0	1Suff PseudoStemNW	14	858855	healty	0.0	6.0	False
860.339	0.0	1Suff RealStemNW	15	860339	merciable	0.0	6.0	False
861.806	0.0	2Suff PseudoStemNW	24	861806	fipitation	0.0	6.0	False
863.106	0.0	0Suff w/ Lat.	1	863106	excess	1.0	5.0	False
864.181	0.0	2Suff RealStemNW	25	864181	useiveness	0.0	6.0	False
865.749	0.0	0Suff w/o Lat.	2	865749	notice	1.0	5.0	False
866.924	0.0	0Suff NW	4	866924	lecer	0.0	6.0	False
867.924	0.0	1Suff RealStemNW	15	867924	momentish	0.0	6.0	False
869.516	0.0	1Suff w/o Lat.	12	869516	masterful	1.0	5.0	False
870.883	0.0	2Suff w/ Lat.	21	870883	composition	1.0	5.0	False
871.975	0.0	0Suff w/o Lat.	2	871975	flex	1.0	5.0	False
873.193	0.0	2Suff RealStemNW	25	873193	excellalism	0.0	6.0	False
874.36	0.0	2Suff RealStemNW	25	874360	breathiously	0.0	5.0	False
875.968	0.0	1Suff RealStemNW	15	875968	modernate	0.0	5.0	False
876.994	0.0	2Suff w/o Lat.	22	876994	suitably	1.0	5.0	False
878.052	0.0	2Suff w/o Lat.	22	878052	kindliness	1.0	5.0	False
879.144	0.0	2Suff PseudoStemNW	24	879144	faicification	0.0	6.0	False
880.828	0.0	0Suff w/ Lat.	1	880828	explode	1.0	5.0	False
881.895	0.0	0Suff NW	4	881895	franic	0.0	6.0	False
883.512	0.0	0Suff w/o Lat.	2	883512	industry	1.0	5.0	False
884.538	0.0	0Suff NW	4	884538	cuppom	0.0	6.0	False
886.438	0.0	1Suff RealStemNW	15	886438	relentable	0.0	6.0	False
887.855	0.0	1Suff w/o Lat.	12	887855	cultural	1.0	5.0	False
888.897	0.0	0Suff NW	4	888897	elpard	0.0	6.0	False
890.048	0.0	1Suff w/o Lat.	12	890048	various	1.0	5.0	False
891.106	0.0	2Suff PseudoStemNW	24	891106	arbumentative	0.0	6.0	False
892.365	0.0	1Suff w/o Lat.	12	892365	sensible	1.0	5.0	False
893.857	0.0	0Suff w/o Lat.	2	893857	pure	1.0	5.0	False
895.266	0.0	2Suff RealStemNW	25	895266	unifilessly	0.0	6.0	False
896.641	0.0	2Suff w/ Lat.	21	896641	effectively	1.0	5.0	False
897.692	0.0	0Suff NW	4	897692	flivit	0.0	6.0	False
898.934	0.0	1Suff w/o Lat.	12	898934	variable	1.0	5.0	False
900.176	0.0	0Suff NW	4	900176	copperce	0.0	6.0	False
901.493	0.0	1Suff w/o Lat.	12	901493	symbolic	1.0	5.0	False
902.727	0.0	1Suff RealStemNW	15	902727	slippor	0.0	6.0	False
903.927	0.0	2Suff Composite	23	903927	maturation	1.0	6.0	False
905.686	0.0	2Suff PseudoStemNW	24	905686	grearively	0.0	5.0	False
906.936	0.0	0Suff w/o Lat.	2	906936	vary	1.0	5.0	False
908.053	0.0	2Suff PseudoStemNW	24	908053	sarumentally	0.0	6.0	False
909.162	0.0	1Suff w/ Lat.	11	909162	conclusive	1.0	5.0	False
910.604	0.0	2Suff PseudoStemNW	24	910604	arpivity	0.0	6.0	False
911.854	0.0	2Suff RealStemNW	25	911854	variality	0.0	5.0	False
913.28	0.0	0Suff w/o Lat.	2	913280	sense	1.0	5.0	False
914.372	0.0	0Suff w/o Lat.	2	914372	style	1.0	5.0	False
915.297	0.0	1Suff w/o Lat.	12	915297	lucky	1.0	6.0	False
916.689	0.0	0Suff w/o Lat.	2	916689	drunk	1.0	5.0	False
917.69	0.0	0Suff NW	4	917690	brealt	0.0	6.0	False
918.807	0.0	0Suff w/o Lat.	2	918807	optic	1.0	5.0	False
920.074	0.0	2Suff Composite	23	920074	altercation	1.0	5.0	False
922.183	0.0	2Suff w/o Lat.	22	922183	joyously	1.0	5.0	False
923.333	0.0	2Suff w/o Lat.	22	923333	momentarily	1.0	5.0	False
924.45	0.0	2Suff PseudoStemNW	24	924450	trithfully	0.0	6.0	False
925.642	0.0	1Suff PseudoStemNW	14	925642	selveless	0.0	6.0	False
927.901	0.0	1Suff PseudoStemNW	14	927901	bleadful	0.0	6.0	False
929.06	0.0	1Suff w/o Lat.	12	929060	joyous	1.0	5.0	False
930.152	0.0	2Suff PseudoStemNW	24	930152	comburation	0.0	6.0	False
931.219	0.0	0Suff NW	4	931219	pums	0.0	6.0	False
932.436	0.0	0Suff NW	4	932436	cedil	0.0	6.0	False
933.461	0.0	1Suff w/o Lat.	12	933461	dangerous	1.0	5.0	False
934.511	0.0	1Suff RealStemNW	15	934511	flexless	0.0	6.0	False
936.829	0.0	2Suff w/o Lat.	22	936829	personally	1.0	5.0	False
937.946	0.0	1Suff w/o Lat.	12	937946	expansive	1.0	5.0	False
939.263	0.0	2Suff w/o Lat.	22	939263	tirelessly	1.0	5.0	False
940.447	0.0	0Suff NW	4	940447	recrern	0.0	6.0	False
941.672	0.0	2Suff RealStemNW	25	941672	quizzally	0.0	5.0	False
942.897	0.0	1Suff PseudoStemNW	14	942897	mocondary	0.0	6.0	False
944.081	0.0	2Suff RealStemNW	25	944081	commerceical	0.0	5.0	False
945.215	0.0	1Suff PseudoStemNW	14	945215	selvual	0.0	6.0	False
946.448	0.0	2Suff PseudoStemNW	24	946448	blunkenness	0.0	6.0	False
947.699	0.0	1Suff RealStemNW	15	947699	provisate	0.0	6.0	False
948.857	0.0	1Suff w/o Lat.	12	948857	secondary	1.0	5.0	False
949.983	0.0	0Suff w/o Lat.	2	949983	exist	1.0	5.0	False
951.016	0.0	2Suff Composite	23	951016	paradoxical	1.0	5.0	False
952.575	0.0	0Suff w/o Lat.	2	952575	luck	1.0	5.0	False
953.484	0.0	2Suff w/ Lat.	21	953484	conclusively	1.0	5.0	False
954.843	0.0	0Suff w/o Lat.	2	954843	culture	1.0	5.0	False
955.826	0.0	2Suff PseudoStemNW	24	955826	patudation	0.0	6.0	False
957.368	0.0	2Suff PseudoStemNW	24	957368	flivitually	0.0	6.0	False
958.752	0.0	1Suff RealStemNW	15	958752	selfory	0.0	6.0	False
959.877	0.0	0Suff NW	4	959877	inflise	0.0	6.0	False
960.928	0.0	0Suff w/o Lat.	2	960928	prophet	1.0	5.0	False
962.045	0.0	2Suff Composite	23	962045	victimization	1.0	5.0	False
963.087	0.0	1Suff RealStemNW	15	963087	continuic	0.0	6.0	False
964.329	0.0	2Suff RealStemNW	25	964329	nationantly	0.0	5.0	False
965.446	0.0	1Suff w/o Lat.	12	965446	creative	1.0	5.0	False
966.563	0.0	0Suff w/o Lat.	2	966563	compute	1.0	5.0	False
967.838	0.0	1Suff w/o Lat.	12	967838	purify	1.0	5.0	False
968.947	0.0	1Suff w/o Lat.	12	968947	tireless	1.0	5.0	False
969.997	0.0	2Suff RealStemNW	25	969997	flexfulness	0.0	6.0	False
971.798	0.0	1Suff w/o Lat.	12	971798	magical	1.0	5.0	False
972.698	0.0	2Suff PseudoStemNW	24	972698	cutfurally	0.0	6.0	False
974.382	0.0	2Suff PseudoStemNW	24	974382	pipsonalize	0.0	n/a	False
976.783	0.0	2Suff PseudoStemNW	24	976783	comborition	0.0	6.0	False
978.308	0.0	2Suff w/o Lat.	22	978308	creativity	1.0	5.0	False
979.475	0.0	0Suff w/ Lat.	1	979475	presume	1.0	5.0	False
980.484	0.0	1Suff PseudoStemNW	14	980484	gunderful	0.0	6.0	False
981.768	0.0	1Suff w/o Lat.	12	981768	careless	1.0	5.0	False
1009.926	0.0	0Suff w/o Lat.	2	1009926	heart	1.0	5.0	False
1010.851	0.0	2Suff RealStemNW	25	1010851	classally	0.0	6.0	False
1012.444	0.0	2Suff w/o Lat.	22	1012444	existential	1.0	5.0	False
1013.527	0.0	2Suff RealStemNW	25	1013527	magicical	0.0	6.0	False
1015.028	0.0	2Suff w/o Lat.	22	1015028	selfishness	1.0	5.0	False
1015.978	0.0	0Suff w/o Lat.	2	1015978	second	1.0	5.0	False
1017.02	0.0	2Suff PseudoStemNW	24	1017020	conspodively	0.0	6.0	False
1018.379	0.0	1Suff RealStemNW	15	1018379	humanify	0.0	6.0	False
1019.688	0.0	2Suff PseudoStemNW	24	1019688	movectization	0.0	6.0	False
1020.721	0.0	0Suff w/ Lat.	1	1020721	express	1.0	5.0	False
1021.813	0.0	2Suff w/o Lat.	22	1021813	beautifully	1.0	5.0	False
1022.797	0.0	1Suff RealStemNW	15	1022797	preferless	0.0	6.0	False
1024.331	0.0	1Suff PseudoStemNW	14	1024331	comburer	0.0	6.0	False
1025.539	0.0	2Suff w/o Lat.	22	1025539	comfortably	1.0	5.0	False
1026.69	0.0	1Suff w/o Lat.	12	1026690	broker	1.0	5.0	False
1027.673	0.0	1Suff w/o Lat.	12	1027673	preferable	1.0	5.0	False
1029.049	0.0	1Suff w/o Lat.	12	1029049	mournful	1.0	5.0	False
1030.099	0.0	2Suff PseudoStemNW	24	1030099	excrodively	0.0	5.0	False
1031.274	0.0	1Suff PseudoStemNW	14	1031274	simnify	0.0	6.0	False
1032.508	0.0	2Suff RealStemNW	25	1032508	penalilessly	0.0	6.0	False
1033.7	0.0	1Suff w/o Lat.	12	1033700	virtuous	1.0	5.0	False
1034.967	0.0	1Suff w/ Lat.	11	1034967	expression	1.0	5.0	False
1036.109	0.0	2Suff w/o Lat.	22	1036109	loveliness	1.0	5.0	False
1037.193	0.0	0Suff w/o Lat.	2	1037193	abolish	1.0	5.0	False
1038.277	0.0	0Suff w/o Lat.	2	1038277	commerce	1.0	5.0	False
1039.377	0.0	2Suff PseudoStemNW	24	1039377	griedily	0.0	6.0	False
1041.336	0.0	0Suff NW	4	1041336	tedal	0.0	6.0	False
1042.511	0.0	1Suff w/o Lat.	12	1042511	commercial	1.0	5.0	False
1043.67	0.0	2Suff w/o Lat.	22	1043670	passionately	1.0	5.0	False
1044.812	0.0	1Suff w/o Lat.	12	1044812	drunken	1.0	5.0	False
1045.862	0.0	1Suff PseudoStemNW	14	1045862	hainy	0.0	6.0	False
1046.979	0.0	1Suff w/o Lat.	12	1046979	artist	1.0	5.0	False
1048.155	0.0	2Suff w/o Lat.	22	1048155	nationalism	1.0	5.0	False
1049.188	0.0	2Suff w/o Lat.	22	1049188	industrialist	1.0	5.0	False
1050.68	0.0	1Suff w/o Lat.	12	1050680	rightful	1.0	5.0	False
1051.556	0.0	2Suff RealStemNW	25	1051556	regionical	0.0	5.0	False
1052.614	0.0	0Suff NW	4	1052614	connurt	0.0	6.0	False
1053.781	0.0	0Suff NW	4	1053781	omlic	0.0	6.0	False
1054.798	0.0	2Suff PseudoStemNW	24	1054798	selvuality	0.0	6.0	False
1055.832	0.0	0Suff w/o Lat.	2	1055832	tradition	1.0	5.0	False
1056.932	0.0	2Suff w/o Lat.	22	1056932	variously	1.0	5.0	False
1057.933	0.0	2Suff Composite	23	1057933	hierarchical	1.0	5.0	False
1059.241	0.0	1Suff w/o Lat.	12	1059241	excellent	1.0	5.0	False
1060.35	0.0	2Suff PseudoStemNW	24	1060350	gunderfully	0.0	6.0	False
1061.525	0.0	2Suff RealStemNW	25	1061525	admirical	0.0	6.0	False
1063.051	0.0	1Suff PseudoStemNW	14	1063051	seetable	0.0	6.0	False
1064.035	0.0	0Suff w/o Lat.	2	1064035	noise	1.0	5.0	False
1065.127	0.0	1Suff PseudoStemNW	14	1065127	broler	0.0	6.0	False
1066.185	0.0	1Suff RealStemNW	15	1066185	needable	0.0	6.0	False
1067.686	0.0	2Suff w/o Lat.	22	1067686	breathlessly	1.0	5.0	False
1068.678	0.0	2Suff RealStemNW	25	1068678	embarkfully	0.0	6.0	False
1070.061	0.0	2Suff Composite	23	1070061	solipsistic	1.0	6.0	False
1071.295	0.0	1Suff PseudoStemNW	14	1071295	mymbolic	0.0	6.0	False
1072.837	0.0	2Suff RealStemNW	25	1072837	selectfully	0.0	5.0	False
1073.904	0.0	0Suff w/o Lat.	2	1073904	lone	1.0	5.0	False
1075.455	0.0	2Suff w/o Lat.	22	1075455	activate	1.0	5.0	False
1076.597	0.0	0Suff NW	4	1076597	dester	0.0	6.0	False
1077.822	0.0	1Suff w/o Lat.	12	1077822	measurable	1.0	5.0	False
1078.864	0.0	1Suff PseudoStemNW	14	1078864	nolfy	0.0	6.0	False
1079.931	0.0	1Suff PseudoStemNW	14	1079931	booftiful	0.0	5.0	False
1081.79	0.0	0Suff NW	4	1081790	conwode	0.0	6.0	False
1082.865	0.0	2Suff RealStemNW	25	1082865	suitfulness	0.0	6.0	False
1083.924	0.0	0Suff NW	4	1083924	perfall	0.0	6.0	False
1084.916	0.0	0Suff NW	4	1084916	freat	0.0	6.0	False
1086.025	0.0	2Suff RealStemNW	25	1086025	momentantly	0.0	6.0	False
1087.658	0.0	2Suff PseudoStemNW	24	1087658	onwertionable	0.0	6.0	False
1088.667	0.0	2Suff RealStemNW	25	1088667	objectfully	0.0	5.0	False
1090.693	0.0	0Suff NW	4	1090693	movect	0.0	6.0	False
1092.635	0.0	0Suff NW	4	1092635	blead	0.0	6.0	False
1093.669	0.0	2Suff w/o Lat.	22	1093669	justifiable	1.0	5.0	False
1094.827	0.0	0Suff NW	4	1094827	styke	0.0	6.0	False
1095.961	0.0	1Suff PseudoStemNW	14	1095961	lumsy	0.0	6.0	False
1097.003	0.0	2Suff RealStemNW	25	1097003	purifilessly	0.0	6.0	False
1098.312	0.0	2Suff Composite	23	1098312	whimsical	1.0	6.0	False
1099.27	0.0	2Suff PseudoStemNW	24	1099270	flivitualize	0.0	6.0	False
1100.554	0.0	0Suff NW	4	1100554	gunder	0.0	6.0	False
1101.629	0.0	0Suff w/o Lat.	2	1101629	mercy	1.0	5.0	False
1102.605	0.0	2Suff w/o Lat.	22	1102605	virtuosity	1.0	5.0	False
1104.239	0.0	0Suff w/ Lat.	1	1104239	exclude	1.0	5.0	False
1105.406	0.0	1Suff w/o Lat.	12	1105406	fruitless	1.0	5.0	False
1106.514	0.0	2Suff w/o Lat.	22	1106514	selectively	1.0	5.0	False
1107.656	0.0	0Suff w/o Lat.	2	1107656	broke	1.0	5.0	False
1108.732	0.0	2Suff w/ Lat.	21	1108732	expressionism	1.0	5.0	False
1109.899	0.0	1Suff RealStemNW	15	1109899	exceptate	0.0	6.0	False
1111.399	0.0	2Suff RealStemNW	25	1111399	commerceional	0.0	5.0	False
1112.558	0.0	2Suff RealStemNW	25	1112558	sensfulness	0.0	5.0	False
1114.358	0.0	0Suff NW	4	1114358	faice	0.0	6.0	False
1115.484	0.0	2Suff PseudoStemNW	24	1115484	conwodential	0.0	6.0	False
1116.559	0.0	0Suff w/o Lat.	2	1116559	right	1.0	6.0	False
1117.551	0.0	0Suff NW	4	1117551	simn	0.0	6.0	False
1118.685	0.0	2Suff w/o Lat.	22	1118685	carelessly	1.0	5.0	False
1119.685	0.0	1Suff w/o Lat.	12	1119685	classic	1.0	5.0	False
1120.594	0.0	1Suff w/ Lat.	11	1120594	institution	1.0	5.0	False
1121.786	0.0	2Suff RealStemNW	25	1121786	explosfully	0.0	6.0	False
1123.319	0.0	0Suff NW	4	1123319	carsh	0.0	6.0	False
1124.586	0.0	0Suff NW	4	1124586	brole	0.0	6.0	False
1125.787	0.0	2Suff w/o Lat.	22	1125787	luckily	1.0	5.0	False
1126.879	0.0	2Suff w/o Lat.	22	1126879	creatively	1.0	5.0	False
1127.946	0.0	2Suff w/o Lat.	22	1127946	effortlessly	1.0	5.0	False
1129.013	0.0	2Suff RealStemNW	25	1129013	brokiness	0.0	6.0	False
1130.372	0.0	2Suff RealStemNW	25	1130372	careiousness	0.0	6.0	False
1131.705	0.0	2Suff RealStemNW	25	1131705	stylional	0.0	6.0	False
1133.006	0.0	1Suff PseudoStemNW	14	1133006	ceantless	0.0	6.0	False
1134.198	0.0	1Suff w/o Lat.	12	1134198	industrial	1.0	5.0	False
1135.515	0.0	2Suff w/ Lat.	21	1135515	expressionist	1.0	5.0	False
1136.857	0.0	1Suff w/o Lat.	12	1136857	flexible	1.0	5.0	False
1137.916	0.0	0Suff w/o Lat.	2	1137916	legal	1.0	5.0	False
1138.874	0.0	1Suff w/o Lat.	12	1138874	customary	1.0	5.0	False
1140.225	0.0	2Suff w/o Lat.	22	1140225	helpfully	1.0	5.0	False
1141.233	0.0	0Suff w/o Lat.	2	1141233	haste	1.0	5.0	False
1142.3	0.0	1Suff w/o Lat.	12	1142300	foolish	1.0	5.0	False
1143.201	0.0	2Suff w/o Lat.	22	1143201	methodically	1.0	5.0	False
1144.209	0.0	1Suff w/o Lat.	12	1144209	tactical	1.0	5.0	False
1145.101	0.0	2Suff Composite	23	1145101	valuation	1.0	5.0	False
1146.301	0.0	2Suff w/o Lat.	22	1146301	culturally	1.0	5.0	False
1147.385	0.0	0Suff w/o Lat.	2	1147385	class	1.0	5.0	False
1148.202	0.0	1Suff w/o Lat.	12	1148202	merciless	1.0	5.0	False
1149.219	0.0	0Suff w/o Lat.	2	1149219	brute	1.0	5.0	False
1150.044	0.0	1Suff w/o Lat.	12	1150044	righteous	1.0	5.0	False
1152.387	0.0	0Suff w/o Lat.	2	1152387	art	1.0	5.0	False
1153.254	0.0	2Suff w/o Lat.	22	1153254	suitability	1.0	5.0	False
1154.204	0.0	1Suff w/o Lat.	12	1154204	civilize	1.0	5.0	False
1155.179	0.0	1Suff RealStemNW	15	1155179	virtance	0.0	6.0	False
1156.63	0.0	2Suff w/o Lat.	22	1156630	traditionally	1.0	5.0	False
1157.63	0.0	1Suff RealStemNW	15	1157630	conductful	0.0	5.0	False
1158.939	0.0	0Suff NW	4	1158939	sothod	0.0	6.0	False
1160.081	0.0	2Suff RealStemNW	25	1160081	signmentive	0.0	6.0	False
1161.248	0.0	2Suff w/o Lat.	22	1161248	hastily	1.0	5.0	False
1162.306	0.0	2Suff w/o Lat.	22	1162306	commercially	1.0	5.0	False
1163.315	0.0	2Suff w/o Lat.	22	1163315	significance	1.0	6.0	False
1164.074	0.0	0Suff w/ Lat.	1	1164074	conclude	1.0	5.0	False
1165.299	0.0	0Suff w/o Lat.	2	1165299	act	1.0	5.0	False
1166.158	0.0	2Suff w/o Lat.	22	1166158	noisily	1.0	5.0	False
1167.425	0.0	1Suff w/o Lat.	12	1167425	stylist	1.0	5.0	False
1168.367	0.0	0Suff NW	4	1168367	awn	0.0	6.0	False
1169.584	0.0	1Suff w/o Lat.	12	1169584	attentive	1.0	5.0	False
1170.584	0.0	0Suff w/o Lat.	2	1170584	admire	1.0	5.0	False
1171.618	0.0	1Suff PseudoStemNW	14	1171618	lokely	0.0	6.0	False
1172.718	0.0	2Suff w/o Lat.	22	1172718	cyclical	1.0	5.0	False
1173.735	0.0	2Suff w/ Lat.	21	1173735	excessively	1.0	5.0	False
1174.885	0.0	1Suff PseudoStemNW	14	1174885	ewilsence	0.0	5.0	False
1176.011	0.0	2Suff PseudoStemNW	24	1176011	healtily	0.0	6.0	False
1177.636	0.0	1Suff PseudoStemNW	14	1177636	franical	0.0	6.0	False
1178.878	0.0	1Suff w/o Lat.	12	1178878	humanist	1.0	5.0	False
1180.104	0.0	2Suff PseudoStemNW	24	1180104	bleadfully	0.0	6.0	False
1181.362	0.0	1Suff w/o Lat.	12	1181362	active	1.0	5.0	False
1182.563	0.0	2Suff w/o Lat.	22	1182563	herbalist	1.0	5.0	False
1183.805	0.0	1Suff w/o Lat.	12	1183805	respective	1.0	5.0	False
1184.88	0.0	2Suff RealStemNW	25	1184880	identally	0.0	6.0	False
1186.18	0.0	1Suff w/o Lat.	12	1186180	causal	1.0	5.0	False
1187.289	0.0	1Suff w/ Lat.	11	1187289	provision	1.0	n/a	False
1189.69	0.0	2Suff RealStemNW	25	1189690	feverality	0.0	6.0	False
1191.19	0.0	2Suff PseudoStemNW	24	1191190	eschessionist	0.0	6.0	False
1192.374	0.0	2Suff PseudoStemNW	24	1192374	procation	0.0	6.0	False
1193.816	0.0	1Suff w/ Lat.	11	1193816	inspiration	1.0	5.0	False
1194.9	0.0	0Suff NW	4	1194900	victap	0.0	6.0	False
1195.883	0.0	1Suff w/o Lat.	12	1195883	justify	1.0	5.0	False
1196.875	0.0	1Suff w/o Lat.	12	1196875	signify	1.0	5.0	False
1197.851	0.0	1Suff RealStemNW	15	1197851	selfable	0.0	5.0	False
1198.859	0.0	1Suff RealStemNW	15	1198859	careable	0.0	n/a	False
1201.268	0.0	2Suff Composite	23	1201268	farcical	1.0	5.0	False
1202.652	0.0	0Suff w/o Lat.	2	1202652	sharp	1.0	5.0	False
1203.619	0.0	1Suff RealStemNW	15	1203619	effortable	0.0	6.0	False
1205.003	0.0	0Suff w/o Lat.	2	1205003	help	1.0	5.0	False
1205.928	0.0	2Suff w/ Lat.	21	1205928	provisional	1.0	5.0	False
1206.962	0.0	2Suff RealStemNW	25	1206962	legalability	0.0	n/a	False
1209.363	0.0	2Suff w/o Lat.	22	1209363	helplessly	1.0	5.0	False
1210.38	0.0	1Suff PseudoStemNW	14	1210380	coatageous	0.0	6.0	False
1211.755	0.0	1Suff RealStemNW	15	1211755	mournive	0.0	6.0	False
1212.922	0.0	0Suff w/o Lat.	2	1212922	moment	1.0	5.0	False
1213.997	0.0	2Suff w/o Lat.	22	1213997	continuously	1.0	5.0	False
1214.973	0.0	0Suff w/o Lat.	2	1214973	lust	1.0	5.0	False
1215.906	0.0	1Suff PseudoStemNW	14	1215906	brukal	0.0	6.0	False
1216.873	0.0	0Suff w/o Lat.	2	1216873	relent	1.0	5.0	False
1217.932	0.0	0Suff w/o Lat.	2	1217932	fool	1.0	5.0	False
1218.84	0.0	1Suff RealStemNW	15	1218840	classal	0.0	6.0	False
1220.116	0.0	0Suff NW	4	1220116	tablic	0.0	6.0	False
1221.116	0.0	1Suff w/o Lat.	12	1221116	lovely	1.0	5.0	False
1222.008	0.0	1Suff PseudoStemNW	14	1222008	rinchful	0.0	6.0	False
1223.192	0.0	2Suff w/o Lat.	22	1223192	civilization	1.0	5.0	False
1224.15	0.0	2Suff RealStemNW	25	1224150	signiousness	0.0	6.0	False
1225.284	0.0	1Suff w/ Lat.	11	1225284	objective	1.0	5.0	False
1226.251	0.0	2Suff RealStemNW	25	1226251	tacticical	0.0	5.0	False
1227.31	0.0	1Suff RealStemNW	15	1227310	tacticic	0.0	6.0	False
1229.594	0.0	2Suff RealStemNW	25	1229594	artional	0.0	6.0	False
1231.203	0.0	1Suff w/o Lat.	12	1231203	ceaseless	1.0	5.0	False
1232.728	0.0	1Suff w/o Lat.	12	1232728	modernist	1.0	5.0	False
1233.728	0.0	2Suff RealStemNW	25	1233728	civilability	0.0	5.0	False
1235.879	0.0	2Suff PseudoStemNW	24	1235879	excrodiveness	0.0	6.0	False
1237.129	0.0	2Suff w/o Lat.	22	1237129	masterfully	1.0	5.0	False
1238.18	0.0	2Suff w/o Lat.	22	1238180	brutality	1.0	5.0	False
1239.197	0.0	1Suff w/o Lat.	12	1239197	merciful	1.0	5.0	False
1240.522	0.0	1Suff PseudoStemNW	14	1240522	cutfural	0.0	6.0	False
1241.706	0.0	2Suff w/o Lat.	22	1241706	spiritualize	1.0	5.0	False
1242.773	0.0	1Suff w/o Lat.	12	1242773	vaccinate	1.0	5.0	False
1243.815	0.0	2Suff RealStemNW	25	1243815	fertilability	0.0	n/a	False
1246.216	0.0	2Suff RealStemNW	25	1246216	masterively	0.0	6.0	False
1247.549	0.0	0Suff NW	4	1247549	sedule	0.0	6.0	False
1248.941	0.0	2Suff PseudoStemNW	24	1248941	ewilsential	0.0	6.0	False
1249.983	0.0	1Suff w/o Lat.	12	1249983	comical	1.0	5.0	False
1251.125	0.0	2Suff w/o Lat.	22	1251125	brutalize	1.0	5.0	False
1252.484	0.0	0Suff NW	4	1252484	navoun	0.0	6.0	False
1253.509	0.0	0Suff NW	4	1253509	feam	0.0	6.0	False
1254.651	0.0	2Suff PseudoStemNW	24	1254651	seetably	0.0	6.0	False
1255.81	0.0	0Suff NW	4	1255810	jok	0.0	6.0	False
1256.777	0.0	0Suff w/o Lat.	2	1256777	cause	1.0	5.0	False
1257.761	0.0	0Suff w/o Lat.	2	1257761	slip	1.0	5.0	False
1258.861	0.0	2Suff RealStemNW	25	1258861	excessfully	0.0	6.0	False
1260.778	0.0	2Suff w/o Lat.	22	1260778	needlessly	1.0	5.0	False
1261.87	0.0	2Suff PseudoStemNW	24	1261870	moolurably	0.0	6.0	False
1263.012	0.0	1Suff w/o Lat.	12	1263012	existence	1.0	5.0	False
1264.021	0.0	2Suff PseudoStemNW	24	1264021	spippery	0.0	6.0	False
1265.213	0.0	1Suff w/o Lat.	12	1265213	endless	1.0	5.0	False
1266.18	0.0	2Suff PseudoStemNW	24	1266180	prosodural	0.0	6.0	False
1267.589	0.0	0Suff NW	4	1267589	lond	0.0	6.0	False
1269.381	0.0	0Suff NW	4	1269381	exprede	0.0	6.0	False
1271.257	0.0	1Suff RealStemNW	15	1271257	noticeless	0.0	6.0	False
1272.682	0.0	2Suff w/o Lat.	22	1272682	selflessness	1.0	5.0	False
1273.982	0.0	1Suff w/o Lat.	12	1273982	greedy	1.0	5.0	False
1274.924	0.0	1Suff RealStemNW	15	1274924	helpive	0.0	6.0	False
1276.15	0.0	2Suff w/o Lat.	22	1276150	spiritually	1.0	5.0	False
1277.483	0.0	2Suff w/o Lat.	22	1277483	prophetically	1.0	5.0	False
1278.967	0.0	0Suff NW	4	1278967	vetcine	0.0	6.0	False
1280.051	0.0	1Suff PseudoStemNW	14	1280051	coyimal	0.0	6.0	False
1281.093	0.0	0Suff w/o Lat.	2	1281093	dread	1.0	5.0	False
1282.535	0.0	1Suff PseudoStemNW	14	1282535	darberous	0.0	6.0	False
1283.802	0.0	2Suff w/o Lat.	22	1283802	endlessly	1.0	5.0	False
1284.927	0.0	2Suff w/ Lat.	21	1284927	exceptional	1.0	5.0	False
1286.053	0.0	2Suff PseudoStemNW	24	1286053	effornively	0.0	6.0	False
1287.32	0.0	0Suff NW	4	1287320	mourd	0.0	6.0	False
