onset	duration	trial_type	value	sample	stimulus	is_word	response	correct
89.628	0.0	2Suff PseudoStemNW	24	89628	posicarization	0.0	1.0	False
90.945	0.0	1Suff PseudoStemNW	14	90945	devadive	0.0	1.0	False
92.42	0.0	2Suff PseudoStemNW	24	92420	chirdishness	0.0	0.0	True
94.054	0.0	0Suff NW	4	94054	figic	0.0	1.0	False
95.763	0.0	1Suff RealStemNW	15	95763	leador	0.0	1.0	False
97.489	0.0	1Suff RealStemNW	15	97489	designion	0.0	1.0	False
99.239	0.0	2Suff w/o Lat.	22	99239	fatalism	1.0	0.0	False
100.515	0.0	2Suff PseudoStemNW	24	100515	prebitably	0.0	1.0	False
102.257	0.0	0Suff NW	4	102257	rame	0.0	1.0	False
103.757	0.0	2Suff w/o Lat.	22	103757	profitably	1.0	0.0	False
105.291	0.0	0Suff w/ Lat.	1	105291	mistake	1.0	0.0	False
106.675	0.0	2Suff w/o Lat.	22	106675	executioner	1.0	0.0	False
108.067	0.0	0Suff NW	4	108067	instrove	0.0	1.0	False
109.409	0.0	2Suff RealStemNW	25	109409	relateness	0.0	0.0	True
110.868	0.0	0Suff NW	4	110868	eant	0.0	1.0	False
112.168	0.0	2Suff RealStemNW	25	112168	persistalism	0.0	0.0	True
113.935	0.0	1Suff PseudoStemNW	14	113935	mowthure	0.0	1.0	False
115.311	0.0	2Suff RealStemNW	25	115311	familiately	0.0	1.0	False
116.961	0.0	2Suff PseudoStemNW	24	116961	stoteldionist	0.0	1.0	False
118.637	0.0	1Suff PseudoStemNW	14	118637	priueurant	0.0	1.0	False
120.804	0.0	1Suff PseudoStemNW	14	120804	nolify	0.0	0.0	True
122.997	0.0	2Suff w/o Lat.	22	122997	ceremonially	1.0	n/a	False
125.406	0.0	1Suff RealStemNW	15	125406	polit	0.0	1.0	False
126.689	0.0	1Suff PseudoStemNW	14	126689	vimidate	0.0	1.0	False
128.332	0.0	0Suff NW	4	128332	coul	0.0	1.0	False
130.424	0.0	0Suff w/ Lat.	1	130424	project	1.0	0.0	False
131.558	0.0	1Suff w/o Lat.	12	131558	mobilize	1.0	0.0	False
132.683	0.0	0Suff w/o Lat.	2	132683	hope	1.0	0.0	False
133.95	0.0	0Suff NW	4	133950	nerbs	0.0	1.0	False
135.342	0.0	2Suff w/o Lat.	22	135342	restlessness	1.0	0.0	False
136.534	0.0	1Suff w/o Lat.	12	136534	transition	1.0	0.0	False
137.634	0.0	0Suff w/o Lat.	2	137634	out	1.0	0.0	False
138.71	0.0	2Suff w/o Lat.	22	138710	globally	1.0	0.0	False
139.96	0.0	0Suff NW	4	139960	eshaums	0.0	1.0	False
141.144	0.0	2Suff PseudoStemNW	24	141144	chotintically	0.0	1.0	False
142.703	0.0	2Suff w/o Lat.	22	142703	directional	1.0	0.0	False
144.136	0.0	2Suff w/o Lat.	22	144136	realistic	1.0	0.0	False
145.278	0.0	2Suff w/o Lat.	22	145278	peacefully	1.0	0.0	False
146.504	0.0	1Suff w/ Lat.	11	146504	mistaken	1.0	0.0	False
147.829	0.0	0Suff NW	4	147829	pavediad	0.0	1.0	False
149.288	0.0	2Suff Composite	23	149288	militarization	1.0	0.0	False
150.78	0.0	2Suff w/o Lat.	22	150780	relativity	1.0	0.0	False
152.264	0.0	1Suff w/o Lat.	12	152264	partial	1.0	0.0	False
153.623	0.0	1Suff w/o Lat.	12	153623	architecture	1.0	0.0	False
155.09	0.0	0Suff w/ Lat.	1	155090	affirm	1.0	0.0	False
156.415	0.0	0Suff NW	4	156415	hyth	0.0	1.0	False
157.666	0.0	2Suff w/o Lat.	22	157666	guardianship	1.0	1.0	True
159.358	0.0	1Suff w/o Lat.	12	159358	relative	1.0	0.0	False
160.641	0.0	2Suff PseudoStemNW	24	160641	paftially	0.0	1.0	False
162.209	0.0	0Suff w/o Lat.	2	162209	statistic	1.0	0.0	False
163.501	0.0	0Suff w/o Lat.	2	163501	glory	1.0	0.0	False
164.743	0.0	0Suff NW	4	164743	onnense	0.0	1.0	False
166.235	0.0	2Suff w/o Lat.	22	166235	triviality	1.0	0.0	False
167.502	0.0	0Suff w/o Lat.	2	167502	magnet	1.0	0.0	False
168.994	0.0	1Suff RealStemNW	15	168994	protectate	0.0	1.0	False
170.736	0.0	0Suff NW	4	170736	etil	0.0	1.0	False
171.945	0.0	2Suff w/o Lat.	22	171945	graciously	1.0	0.0	False
173.154	0.0	1Suff PseudoStemNW	14	173154	ramial	0.0	1.0	False
174.529	0.0	1Suff w/o Lat.	12	174529	seasonal	1.0	0.0	False
175.821	0.0	1Suff w/o Lat.	12	175821	polar	1.0	0.0	False
177.088	0.0	2Suff w/o Lat.	22	177088	basically	1.0	0.0	False
178.48	0.0	1Suff PseudoStemNW	14	178480	lenctional	0.0	1.0	False
179.931	0.0	1Suff w/o Lat.	12	179931	government	1.0	0.0	False
181.365	0.0	2Suff RealStemNW	25	181365	affectorship	0.0	0.0	True
182.932	0.0	2Suff PseudoStemNW	24	182932	urhanization	0.0	1.0	False
184.407	0.0	1Suff w/ Lat.	11	184407	projection	1.0	0.0	False
185.633	0.0	0Suff NW	4	185633	peece	0.0	1.0	False
187.15	0.0	0Suff w/o Lat.	2	187150	immune	1.0	0.0	False
188.417	0.0	0Suff w/o Lat.	2	188417	function	1.0	0.0	False
189.675	0.0	0Suff NW	4	189675	affall	0.0	1.0	False
190.926	0.0	0Suff NW	4	190926	atrie	0.0	1.0	False
192.31	0.0	0Suff NW	4	192310	avold	0.0	1.0	False
193.635	0.0	1Suff RealStemNW	15	193635	competitful	0.0	1.0	False
195.494	0.0	1Suff w/o Lat.	12	195494	education	1.0	0.0	False
196.569	0.0	2Suff PseudoStemNW	24	196569	otification	0.0	1.0	False
198.045	0.0	2Suff PseudoStemNW	24	198045	pafferential	0.0	1.0	False
199.487	0.0	1Suff w/ Lat.	11	199487	conceptual	1.0	0.0	False
200.721	0.0	2Suff RealStemNW	25	200721	executarity	0.0	1.0	False
202.621	0.0	0Suff NW	4	202621	deabon	0.0	1.0	False
203.897	0.0	2Suff RealStemNW	25	203897	aimiously	0.0	1.0	False
205.389	0.0	1Suff PseudoStemNW	14	205389	betiecable	0.0	1.0	False
207.164	0.0	2Suff w/ Lat.	21	207164	subjectively	1.0	0.0	False
208.406	0.0	2Suff w/o Lat.	22	208406	differential	1.0	0.0	False
209.982	0.0	1Suff RealStemNW	15	209982	nervate	0.0	1.0	False
211.399	0.0	1Suff w/ Lat.	11	211399	persistent	1.0	0.0	False
212.583	0.0	2Suff w/o Lat.	22	212583	outwardly	1.0	0.0	False
214.075	0.0	2Suff PseudoStemNW	24	214075	uspasionally	0.0	1.0	False
215.692	0.0	2Suff w/o Lat.	22	215692	seasonally	1.0	0.0	False
217.217	0.0	1Suff PseudoStemNW	14	217217	uteless	0.0	1.0	False
218.818	0.0	0Suff NW	4	218818	vimid	0.0	1.0	False
220.268	0.0	2Suff PseudoStemNW	24	220268	carbisalistic	0.0	1.0	False
222.277	0.0	2Suff RealStemNW	25	222277	familierage	0.0	1.0	False
223.919	0.0	2Suff Composite	23	223919	inflammation	1.0	0.0	False
225.27	0.0	2Suff w/o Lat.	22	225270	childishly	1.0	0.0	False
226.612	0.0	0Suff w/o Lat.	2	226612	period	1.0	0.0	False
227.896	0.0	1Suff RealStemNW	15	227896	eany	0.0	1.0	False
229.171	0.0	2Suff w/o Lat.	22	229171	hopelessly	1.0	0.0	False
230.438	0.0	0Suff NW	4	230438	awd	0.0	1.0	False
231.855	0.0	2Suff w/o Lat.	22	231855	successfully	1.0	0.0	False
233.222	0.0	0Suff w/o Lat.	2	233222	worth	1.0	0.0	False
234.639	0.0	0Suff NW	4	234639	headth	0.0	1.0	False
236.256	0.0	2Suff w/o Lat.	22	236256	definitive	1.0	0.0	False
237.79	0.0	1Suff PseudoStemNW	14	237790	preguctable	0.0	1.0	False
239.466	0.0	2Suff Composite	23	239466	corporation	1.0	0.0	False
241.025	0.0	1Suff w/o Lat.	12	241025	idealist	1.0	0.0	False
242.725	0.0	1Suff w/o Lat.	12	242725	idealize	1.0	0.0	False
243.992	0.0	1Suff PseudoStemNW	14	243992	goulty	0.0	1.0	False
245.234	0.0	1Suff PseudoStemNW	14	245234	coppentate	0.0	1.0	False
247.085	0.0	1Suff RealStemNW	15	247085	gracance	0.0	1.0	False
248.577	0.0	2Suff PseudoStemNW	24	248577	ewsibally	0.0	1.0	False
250.211	0.0	2Suff RealStemNW	25	250211	decorural	0.0	1.0	False
251.961	0.0	0Suff NW	4	251961	mosime	0.0	1.0	False
253.553	0.0	2Suff PseudoStemNW	24	253553	gramiously	0.0	1.0	False
255.446	0.0	2Suff RealStemNW	25	255446	conceptuical	0.0	1.0	False
256.938	0.0	2Suff PseudoStemNW	24	256938	fleedily	0.0	0.0	True
258.455	0.0	2Suff Composite	23	258455	cannibalistic	1.0	0.0	False
260.247	0.0	0Suff w/o Lat.	2	260247	base	1.0	0.0	False
261.481	0.0	1Suff PseudoStemNW	14	261481	awdition	0.0	1.0	False
262.831	0.0	2Suff w/o Lat.	22	262831	editorship	1.0	0.0	False
286.405	0.0	2Suff w/o Lat.	22	286405	agreeably	1.0	0.0	False
287.614	0.0	2Suff w/o Lat.	22	287614	regrettably	1.0	0.0	False
289.156	0.0	1Suff PseudoStemNW	14	289156	eseretion	0.0	1.0	False
290.465	0.0	2Suff w/o Lat.	22	290465	accidentally	1.0	0.0	False
291.707	0.0	2Suff RealStemNW	25	291707	dramationist	0.0	0.0	True
293.307	0.0	1Suff RealStemNW	15	293307	intensful	0.0	1.0	False
294.541	0.0	2Suff Composite	23	294541	quotation	1.0	0.0	False
296.175	0.0	2Suff Composite	23	296175	utilization	1.0	0.0	False
297.467	0.0	2Suff w/o Lat.	22	297467	gracefully	1.0	0.0	False
298.601	0.0	2Suff PseudoStemNW	24	298601	affallation	0.0	1.0	False
300.076	0.0	1Suff w/o Lat.	12	300076	provocative	1.0	0.0	False
301.21	0.0	1Suff w/o Lat.	12	301210	functional	1.0	0.0	False
302.26	0.0	2Suff PseudoStemNW	24	302260	hodelessly	0.0	1.0	False
303.644	0.0	2Suff Composite	23	303644	amplification	1.0	0.0	False
304.978	0.0	0Suff w/o Lat.	2	304978	persuade	1.0	0.0	False
306.22	0.0	1Suff w/o Lat.	12	306220	editor	1.0	0.0	False
307.445	0.0	1Suff RealStemNW	15	307445	mistaker	0.0	0.0	True
308.754	0.0	1Suff PseudoStemNW	14	308754	grameful	0.0	1.0	False
310.063	0.0	2Suff RealStemNW	25	310063	sleepery	0.0	0.0	True
311.63	0.0	0Suff w/o Lat.	2	311630	ritual	1.0	0.0	False
313.222	0.0	2Suff w/o Lat.	22	313222	furiously	1.0	0.0	False
314.656	0.0	1Suff PseudoStemNW	14	314656	concolerable	0.0	1.0	False
316.123	0.0	2Suff w/o Lat.	22	316123	polarize	1.0	0.0	False
317.315	0.0	0Suff NW	4	317315	distawks	0.0	1.0	False
318.457	0.0	0Suff NW	4	318457	musual	0.0	1.0	False
319.699	0.0	0Suff NW	4	319699	tuty	0.0	1.0	False
321.216	0.0	1Suff w/o Lat.	12	321216	isolation	1.0	0.0	False
322.625	0.0	1Suff PseudoStemNW	14	322625	fralatize	0.0	1.0	False
324.017	0.0	1Suff w/o Lat.	12	324017	ritualist	1.0	0.0	False
325.209	0.0	1Suff w/o Lat.	12	325209	relation	1.0	0.0	False
326.384	0.0	2Suff w/o Lat.	22	326384	assassination	1.0	0.0	False
327.701	0.0	1Suff PseudoStemNW	14	327701	headthy	0.0	1.0	False
329.185	0.0	1Suff w/ Lat.	11	329185	exhibition	1.0	0.0	False
330.802	0.0	2Suff RealStemNW	25	330802	impressliness	0.0	1.0	False
332.244	0.0	0Suff NW	4	332244	wate	0.0	1.0	False
333.545	0.0	2Suff Composite	23	333545	dramatization	1.0	0.0	False
335.137	0.0	2Suff RealStemNW	25	335137	forgetiveness	0.0	0.0	True
336.437	0.0	2Suff RealStemNW	25	336437	notifilessly	0.0	1.0	False
338.363	0.0	1Suff RealStemNW	15	338363	differious	0.0	1.0	False
339.797	0.0	1Suff PseudoStemNW	14	339797	distawksive	0.0	1.0	False
341.13	0.0	0Suff NW	4	341130	perburve	0.0	1.0	False
342.723	0.0	2Suff w/o Lat.	22	342723	marginally	1.0	0.0	False
344.148	0.0	0Suff NW	4	344148	han	0.0	1.0	False
345.557	0.0	0Suff NW	4	345557	pead	0.0	1.0	False
346.966	0.0	2Suff Composite	23	346966	autistic	1.0	0.0	False
348.191	0.0	1Suff w/o Lat.	12	348191	director	1.0	0.0	False
349.216	0.0	0Suff w/o Lat.	2	349216	relate	1.0	0.0	False
350.583	0.0	1Suff RealStemNW	15	350583	isolatate	0.0	0.0	True
351.834	0.0	2Suff RealStemNW	25	351834	soulively	0.0	0.0	True
353.176	0.0	0Suff NW	4	353176	concoler	0.0	1.0	False
355.185	0.0	1Suff w/o Lat.	12	355185	furious	1.0	0.0	False
356.293	0.0	2Suff RealStemNW	25	356293	exhaustfully	0.0	0.0	True
358.036	0.0	1Suff RealStemNW	15	358036	deadic	0.0	1.0	False
359.444	0.0	1Suff RealStemNW	15	359444	periodal	0.0	0.0	True
360.761	0.0	1Suff w/o Lat.	12	360761	adaptable	1.0	0.0	False
362.337	0.0	0Suff w/o Lat.	2	362337	architect	1.0	0.0	False
363.437	0.0	0Suff w/o Lat.	2	363437	essence	1.0	0.0	False
364.471	0.0	2Suff w/o Lat.	22	364471	idealistic	1.0	0.0	False
365.605	0.0	2Suff RealStemNW	25	365605	peaceively	0.0	1.0	False
367.13	0.0	2Suff PseudoStemNW	24	367130	hodelessness	0.0	1.0	False
368.447	0.0	0Suff NW	4	368447	wead	0.0	1.0	False
369.923	0.0	2Suff PseudoStemNW	24	369923	coppentator	0.0	1.0	False
371.415	0.0	0Suff w/o Lat.	2	371415	logic	1.0	0.0	False
372.915	0.0	2Suff w/o Lat.	22	372915	frightfully	1.0	0.0	False
374.266	0.0	2Suff RealStemNW	25	374266	considerishly	0.0	0.0	True
375.874	0.0	2Suff RealStemNW	25	375874	leadantate	0.0	1.0	False
377.158	0.0	0Suff NW	4	377158	prebit	0.0	1.0	False
378.492	0.0	0Suff NW	4	378492	rerard	0.0	1.0	False
379.659	0.0	2Suff RealStemNW	25	379659	globical	0.0	1.0	False
381.009	0.0	2Suff RealStemNW	25	381009	glorliness	0.0	1.0	False
382.418	0.0	1Suff RealStemNW	15	382418	poetal	0.0	1.0	False
384.069	0.0	0Suff NW	4	384069	eserete	0.0	1.0	False
385.386	0.0	1Suff PseudoStemNW	14	385386	etilor	0.0	1.0	False
386.578	0.0	1Suff PseudoStemNW	14	386578	fleedy	0.0	1.0	False
387.978	0.0	2Suff RealStemNW	25	387978	directality	0.0	0.0	True
390.296	0.0	2Suff Composite	23	390296	commutation	1.0	0.0	False
391.729	0.0	2Suff PseudoStemNW	24	391729	stitilization	0.0	0.0	True
393.547	0.0	2Suff RealStemNW	25	393547	ailistic	0.0	1.0	False
395.247	0.0	1Suff w/o Lat.	12	395247	racial	1.0	0.0	False
397.256	0.0	2Suff w/ Lat.	21	397256	subjectivity	1.0	0.0	False
398.515	0.0	1Suff w/o Lat.	12	398515	frightful	1.0	0.0	False
399.673	0.0	2Suff RealStemNW	25	399673	easery	0.0	1.0	False
401.082	0.0	2Suff PseudoStemNW	24	401082	lenctionally	0.0	1.0	False
402.799	0.0	0Suff w/ Lat.	1	402799	persist	1.0	0.0	False
403.875	0.0	1Suff PseudoStemNW	14	403875	deabonable	0.0	1.0	False
405.359	0.0	2Suff w/o Lat.	22	405359	awfulness	1.0	1.0	True
407.034	0.0	1Suff w/o Lat.	12	407034	nervous	1.0	0.0	False
408.109	0.0	0Suff w/o Lat.	2	408109	ceremony	1.0	0.0	False
409.293	0.0	0Suff w/o Lat.	2	409293	race	1.0	0.0	False
410.418	0.0	0Suff NW	4	410418	steadth	0.0	1.0	False
412.411	0.0	0Suff w/o Lat.	2	412411	success	1.0	0.0	False
413.436	0.0	2Suff PseudoStemNW	24	413436	denboderation	0.0	1.0	False
415.103	0.0	0Suff NW	4	415103	hode	0.0	1.0	False
416.445	0.0	0Suff NW	4	416445	manfin	0.0	1.0	False
417.604	0.0	2Suff w/o Lat.	22	417604	provocatively	1.0	0.0	False
418.979	0.0	0Suff NW	4	418979	exufant	0.0	1.0	False
420.363	0.0	0Suff NW	4	420363	priueur	0.0	1.0	False
421.447	0.0	1Suff w/o Lat.	12	421447	persuasive	1.0	0.0	False
422.639	0.0	1Suff w/o Lat.	12	422639	accidental	1.0	0.0	False
423.964	0.0	2Suff RealStemNW	25	423964	graceively	0.0	0.0	True
425.281	0.0	2Suff Composite	23	425281	sterilization	1.0	0.0	False
427.199	0.0	1Suff w/o Lat.	12	427199	marginal	1.0	0.0	False
428.132	0.0	1Suff PseudoStemNW	14	428132	nolable	0.0	1.0	False
429.449	0.0	0Suff NW	4	429449	diruce	0.0	1.0	False
430.725	0.0	2Suff PseudoStemNW	24	430725	orifadally	0.0	1.0	False
432.517	0.0	0Suff w/o Lat.	2	432517	awe	1.0	0.0	False
434.051	0.0	2Suff RealStemNW	25	434051	painively	0.0	1.0	False
435.701	0.0	0Suff NW	4	435701	fleed	0.0	0.0	True
437.377	0.0	2Suff PseudoStemNW	24	437377	allidation	0.0	1.0	False
439.086	0.0	2Suff w/o Lat.	22	439086	dramatically	1.0	0.0	False
440.294	0.0	1Suff RealStemNW	15	440294	considerion	0.0	0.0	True
441.461	0.0	2Suff w/o Lat.	22	441461	fastener	1.0	0.0	False
443.729	0.0	2Suff RealStemNW	25	443729	subjectously	0.0	0.0	True
445.521	0.0	2Suff w/ Lat.	21	445521	conceptualize	1.0	0.0	False
447.38	0.0	0Suff NW	4	447380	snought	0.0	1.0	False
448.989	0.0	0Suff w/o Lat.	2	448989	rhythm	1.0	0.0	False
450.347	0.0	1Suff PseudoStemNW	14	450347	chansotion	0.0	1.0	False
451.973	0.0	2Suff RealStemNW	25	451973	manionist	0.0	1.0	False
453.623	0.0	0Suff NW	4	453623	artlitack	0.0	1.0	False
480.548	0.0	0Suff NW	4	480548	nole	0.0	1.0	False
481.915	0.0	2Suff PseudoStemNW	24	481915	cunerogially	0.0	1.0	False
483.449	0.0	1Suff w/o Lat.	12	483449	dramatic	1.0	0.0	False
484.475	0.0	2Suff PseudoStemNW	24	484475	vefation	0.0	1.0	False
485.583	0.0	2Suff RealStemNW	25	485583	confessality	0.0	1.0	False
487.359	0.0	0Suff NW	4	487359	pasnet	0.0	1.0	False
488.467	0.0	1Suff w/o Lat.	12	488467	development	1.0	0.0	False
489.601	0.0	2Suff w/o Lat.	22	489601	financially	1.0	0.0	False
490.777	0.0	1Suff RealStemNW	15	490777	idealate	0.0	1.0	False
491.927	0.0	2Suff RealStemNW	25	491927	definerize	0.0	1.0	False
493.269	0.0	0Suff NW	4	493269	pote	0.0	1.0	False
494.444	0.0	2Suff PseudoStemNW	24	494444	falumfilly	0.0	1.0	False
495.945	0.0	1Suff PseudoStemNW	14	495945	orifadal	0.0	1.0	False
497.329	0.0	2Suff w/o Lat.	22	497329	considerably	1.0	0.0	False
498.596	0.0	1Suff PseudoStemNW	14	498596	restittable	0.0	1.0	False
500.154	0.0	1Suff w/o Lat.	12	500154	ethical	1.0	0.0	False
501.346	0.0	1Suff w/o Lat.	12	501346	direction	1.0	0.0	False
502.313	0.0	1Suff w/o Lat.	12	502313	thankful	1.0	0.0	False
503.314	0.0	2Suff w/o Lat.	22	503314	ritualistic	1.0	0.0	False
504.289	0.0	1Suff w/o Lat.	12	504289	considerable	1.0	0.0	False
505.381	0.0	0Suff NW	4	505381	ute	0.0	1.0	False
506.423	0.0	2Suff PseudoStemNW	24	506423	imoatization	0.0	1.0	False
507.607	0.0	0Suff NW	4	507607	cunerogy	0.0	1.0	False
508.69	0.0	2Suff PseudoStemNW	24	508690	dehonitive	0.0	1.0	False
510.199	0.0	2Suff w/o Lat.	22	510199	timeliness	1.0	1.0	True
512.066	0.0	2Suff w/o Lat.	22	512066	polarity	1.0	1.0	True
513.342	0.0	2Suff RealStemNW	25	513342	materialional	0.0	1.0	False
515.718	0.0	0Suff w/o Lat.	2	515718	pain	1.0	0.0	False
516.785	0.0	1Suff PseudoStemNW	14	516785	diruction	0.0	1.0	False
518.377	0.0	2Suff PseudoStemNW	24	518377	orifadality	0.0	1.0	False
519.619	0.0	2Suff w/ Lat.	21	519619	mistakenly	1.0	0.0	False
521.269	0.0	0Suff w/o Lat.	2	521269	regret	1.0	0.0	False
522.353	0.0	2Suff w/o Lat.	22	522353	childishness	1.0	0.0	False
523.87	0.0	1Suff w/o Lat.	12	523870	realist	1.0	0.0	False
525.446	0.0	0Suff w/o Lat.	2	525446	valid	1.0	0.0	False
526.704	0.0	0Suff NW	4	526704	pask	0.0	1.0	False
527.838	0.0	2Suff w/o Lat.	22	527838	cheerfulness	1.0	0.0	False
529.555	0.0	2Suff PseudoStemNW	24	529555	essoilially	0.0	n/a	False
531.956	0.0	1Suff RealStemNW	15	531956	heroal	0.0	1.0	False
532.964	0.0	1Suff w/o Lat.	12	532964	distinctive	1.0	0.0	False
534.04	0.0	1Suff w/o Lat.	12	534040	assassinate	1.0	0.0	False
535.274	0.0	0Suff w/ Lat.	1	535274	impress	1.0	0.0	False
536.332	0.0	2Suff w/o Lat.	22	536332	gloriously	1.0	0.0	False
537.449	0.0	0Suff w/o Lat.	2	537449	occasion	1.0	0.0	False
539.0	0.0	0Suff w/o Lat.	2	539000	harm	1.0	0.0	False
539.958	0.0	1Suff w/o Lat.	12	539958	deadly	1.0	0.0	False
541.042	0.0	1Suff RealStemNW	15	541042	wakeive	0.0	1.0	False
542.351	0.0	1Suff w/o Lat.	12	542351	commentate	1.0	0.0	False
543.593	0.0	2Suff RealStemNW	25	543593	raceical	0.0	1.0	False
544.776	0.0	0Suff w/o Lat.	2	544776	sleep	1.0	0.0	False
545.743	0.0	2Suff w/o Lat.	22	545743	differentiate	1.0	0.0	False
546.835	0.0	0Suff NW	4	546835	imoat	0.0	1.0	False
547.894	0.0	2Suff w/o Lat.	22	547894	originally	1.0	0.0	False
548.894	0.0	1Suff w/o Lat.	12	548894	marketable	1.0	0.0	False
550.061	0.0	0Suff w/o Lat.	2	550061	material	1.0	0.0	False
551.062	0.0	1Suff w/o Lat.	12	551062	heroic	1.0	0.0	False
552.287	0.0	2Suff w/o Lat.	22	552287	distinctively	1.0	0.0	False
553.429	0.0	0Suff w/o Lat.	2	553429	transit	1.0	0.0	False
554.371	0.0	0Suff NW	4	554371	fars	0.0	1.0	False
555.747	0.0	2Suff w/o Lat.	22	555747	delightfully	1.0	0.0	False
556.88	0.0	2Suff PseudoStemNW	24	556880	prodfessively	0.0	1.0	False
558.289	0.0	2Suff w/o Lat.	22	558289	decisively	1.0	0.0	False
559.448	0.0	0Suff w/o Lat.	2	559448	reason	1.0	0.0	False
560.54	0.0	2Suff PseudoStemNW	24	560540	hythically	0.0	1.0	False
561.907	0.0	2Suff Composite	23	561907	vexation	1.0	1.0	True
563.616	0.0	2Suff w/o Lat.	22	563616	thankfulness	1.0	0.0	False
564.624	0.0	0Suff w/o Lat.	2	564624	fright	1.0	0.0	False
565.625	0.0	1Suff w/o Lat.	12	565625	familiar	1.0	0.0	False
566.617	0.0	2Suff RealStemNW	25	566617	awively	0.0	0.0	True
568.342	0.0	2Suff w/o Lat.	22	568342	usefully	1.0	0.0	False
570.301	0.0	1Suff PseudoStemNW	14	570301	snightful	0.0	0.0	True
572.01	0.0	0Suff NW	4	572010	chird	0.0	0.0	True
573.26	0.0	2Suff PseudoStemNW	24	573260	analkability	0.0	1.0	False
575.002	0.0	1Suff w/o Lat.	12	575002	faithful	1.0	0.0	False
576.253	0.0	2Suff w/ Lat.	21	576253	impressionism	1.0	0.0	False
577.545	0.0	1Suff PseudoStemNW	14	577545	thiendly	0.0	1.0	False
578.712	0.0	0Suff w/o Lat.	2	578712	use	1.0	0.0	False
579.687	0.0	0Suff NW	4	579687	betiece	0.0	1.0	False
580.796	0.0	0Suff NW	4	580796	affaid	0.0	1.0	False
582.205	0.0	1Suff PseudoStemNW	14	582205	farsen	0.0	1.0	False
583.43	0.0	0Suff NW	4	583430	thash	0.0	1.0	False
584.647	0.0	1Suff w/o Lat.	12	584647	notable	1.0	0.0	False
586.048	0.0	2Suff w/ Lat.	21	586048	persistently	1.0	0.0	False
587.531	0.0	1Suff PseudoStemNW	14	587531	chotintical	0.0	1.0	False
588.748	0.0	2Suff w/o Lat.	22	588748	materialistic	1.0	0.0	False
589.874	0.0	1Suff PseudoStemNW	14	589874	urmerly	0.0	1.0	False
591.749	0.0	2Suff RealStemNW	25	591749	assassinfully	0.0	0.0	True
593.616	0.0	1Suff w/o Lat.	12	593616	poetic	1.0	0.0	False
594.959	0.0	1Suff RealStemNW	15	594959	conceptuic	0.0	1.0	False
597.009	0.0	0Suff w/o Lat.	2	597009	decide	1.0	0.0	False
598.535	0.0	1Suff PseudoStemNW	14	598535	chierful	0.0	1.0	False
599.977	0.0	0Suff w/o Lat.	2	599977	compete	1.0	0.0	False
601.002	0.0	1Suff w/o Lat.	12	601002	exhaustive	1.0	0.0	False
602.261	0.0	0Suff w/o Lat.	2	602261	agree	1.0	0.0	False
603.486	0.0	2Suff w/ Lat.	21	603486	extensively	1.0	0.0	False
604.662	0.0	1Suff w/o Lat.	12	604662	thoughtful	1.0	0.0	False
606.054	0.0	1Suff RealStemNW	15	606054	confessate	0.0	0.0	True
607.888	0.0	1Suff w/o Lat.	12	607888	regrettable	1.0	0.0	False
609.03	0.0	1Suff PseudoStemNW	14	609030	uspasional	0.0	1.0	False
610.538	0.0	2Suff w/o Lat.	22	610538	decorator	1.0	0.0	False
612.106	0.0	0Suff NW	4	612106	faulm	0.0	1.0	False
613.273	0.0	1Suff PseudoStemNW	14	613273	glibal	0.0	1.0	False
614.323	0.0	2Suff RealStemNW	25	614323	dramatilessly	0.0	1.0	False
615.94	0.0	2Suff w/o Lat.	22	615940	differently	1.0	0.0	False
617.724	0.0	0Suff w/o Lat.	2	617724	profit	1.0	0.0	False
618.858	0.0	0Suff NW	4	618858	sork	0.0	1.0	False
620.025	0.0	2Suff RealStemNW	25	620025	orderionist	0.0	1.0	False
622.042	0.0	0Suff NW	4	622042	stoteld	0.0	1.0	False
623.201	0.0	2Suff w/o Lat.	22	623201	cheerfully	1.0	0.0	False
624.676	0.0	1Suff RealStemNW	15	624676	manen	0.0	1.0	False
625.768	0.0	2Suff w/o Lat.	22	625768	stealthily	1.0	0.0	False
627.41	0.0	2Suff RealStemNW	25	627410	hopeively	0.0	1.0	False
628.861	0.0	2Suff w/o Lat.	22	628861	competitively	1.0	0.0	False
630.645	0.0	0Suff w/o Lat.	2	630645	grace	1.0	0.0	False
631.62	0.0	1Suff RealStemNW	15	631620	relatful	0.0	0.0	True
632.804	0.0	2Suff PseudoStemNW	24	632804	thashfulness	0.0	1.0	False
634.212	0.0	1Suff w/o Lat.	12	634212	guilty	1.0	0.0	False
635.488	0.0	2Suff w/o Lat.	22	635488	triumphantly	1.0	0.0	False
636.955	0.0	1Suff w/ Lat.	11	636955	affirmative	1.0	0.0	False
647.9	0.0	0Suff w/o Lat.	2	647900	fast	1.0	0.0	False
649.025	0.0	1Suff PseudoStemNW	14	649025	thacken	0.0	1.0	False
650.284	0.0	0Suff w/o Lat.	2	650284	nerve	1.0	0.0	False
651.384	0.0	2Suff w/ Lat.	21	651384	progressively	1.0	0.0	False
652.526	0.0	1Suff RealStemNW	15	652526	magnetal	0.0	0.0	True
653.718	0.0	1Suff PseudoStemNW	14	653718	fleepy	0.0	1.0	False
655.369	0.0	1Suff PseudoStemNW	14	655369	affaidative	0.0	1.0	False
656.686	0.0	2Suff w/o Lat.	22	656686	ethically	1.0	0.0	False
658.103	0.0	2Suff RealStemNW	25	658103	seasonical	0.0	0.0	True
659.445	0.0	0Suff w/o Lat.	2	659445	fury	1.0	0.0	False
660.904	0.0	2Suff PseudoStemNW	24	660904	segnonistic	0.0	1.0	False
662.088	0.0	1Suff RealStemNW	15	662088	directar	0.0	1.0	False
663.413	0.0	0Suff w/o Lat.	2	663413	mobile	1.0	0.0	False
664.638	0.0	1Suff RealStemNW	15	664638	educatate	0.0	0.0	True
665.964	0.0	0Suff NW	4	665964	thiend	0.0	1.0	False
667.064	0.0	2Suff PseudoStemNW	24	667064	adstification	0.0	1.0	False
668.231	0.0	2Suff RealStemNW	25	668231	financeical	0.0	0.0	True
669.356	0.0	1Suff w/ Lat.	11	669356	predictable	1.0	0.0	False
670.715	0.0	2Suff PseudoStemNW	24	670715	potarity	0.0	1.0	False
672.007	0.0	2Suff w/o Lat.	22	672007	hopelessness	1.0	0.0	False
673.174	0.0	2Suff RealStemNW	25	673174	marketfulness	0.0	0.0	True
674.6	0.0	1Suff RealStemNW	15	674600	peaceive	0.0	1.0	False
676.084	0.0	0Suff w/o Lat.	2	676084	isolate	1.0	0.0	False
677.126	0.0	0Suff NW	4	677126	gloo	0.0	1.0	False
678.276	0.0	0Suff NW	4	678276	concuch	0.0	1.0	False
679.618	0.0	0Suff NW	4	679618	itcress	0.0	1.0	False
680.802	0.0	1Suff PseudoStemNW	14	680802	halkless	0.0	1.0	False
682.052	0.0	2Suff RealStemNW	25	682052	fasticly	0.0	1.0	False
683.644	0.0	2Suff w/ Lat.	21	683644	predictably	1.0	0.0	False
685.128	0.0	2Suff RealStemNW	25	685128	characterional	0.0	1.0	False
686.562	0.0	1Suff PseudoStemNW	14	686562	steadthy	0.0	1.0	False
688.579	0.0	2Suff w/o Lat.	22	688579	painlessly	1.0	0.0	False
689.829	0.0	2Suff w/o Lat.	22	689829	mobilization	1.0	0.0	False
690.888	0.0	1Suff w/o Lat.	12	690888	soulful	1.0	0.0	False
692.589	0.0	1Suff w/o Lat.	12	692589	confession	1.0	0.0	False
693.639	0.0	1Suff w/o Lat.	12	693639	useful	1.0	0.0	False
694.723	0.0	0Suff w/o Lat.	2	694723	thank	1.0	0.0	False
695.981	0.0	2Suff PseudoStemNW	24	695981	sorkener	0.0	1.0	False
697.257	0.0	2Suff RealStemNW	25	697257	futurional	0.0	1.0	False
698.599	0.0	0Suff w/o Lat.	2	698599	dead	1.0	0.0	False
700.049	0.0	0Suff NW	4	700049	isotent	0.0	1.0	False
701.183	0.0	0Suff w/o Lat.	2	701183	ease	1.0	0.0	False
702.417	0.0	0Suff NW	4	702417	corzess	0.0	1.0	False
703.492	0.0	0Suff w/o Lat.	2	703492	educate	1.0	0.0	False
704.567	0.0	2Suff w/o Lat.	22	704567	poetical	1.0	1.0	True
705.851	0.0	2Suff PseudoStemNW	24	705851	squasification	0.0	1.0	False
707.435	0.0	2Suff w/o Lat.	22	707435	partially	1.0	0.0	False
708.335	0.0	2Suff Composite	23	708335	categorical	1.0	0.0	False
709.636	0.0	2Suff PseudoStemNW	24	709636	miccessfully	0.0	1.0	False
710.836	0.0	2Suff w/o Lat.	22	710836	trivialize	1.0	0.0	False
712.036	0.0	0Suff w/o Lat.	2	712036	soft	1.0	0.0	False
713.27	0.0	1Suff RealStemNW	15	713270	thoughtive	0.0	0.0	True
714.512	0.0	2Suff RealStemNW	25	714512	realional	0.0	1.0	False
716.138	0.0	0Suff w/o Lat.	2	716138	adapt	1.0	0.0	False
717.346	0.0	2Suff w/ Lat.	21	717346	conceptually	1.0	0.0	False
718.338	0.0	2Suff PseudoStemNW	24	718338	orifadator	0.0	1.0	False
719.547	0.0	1Suff w/o Lat.	12	719547	hopeless	1.0	0.0	False
720.622	0.0	2Suff RealStemNW	25	720622	decisishness	0.0	1.0	False
722.723	0.0	1Suff w/o Lat.	12	722723	agreeable	1.0	0.0	False
723.807	0.0	0Suff w/o Lat.	2	723807	real	1.0	0.0	False
724.924	0.0	0Suff NW	4	724924	provame	0.0	1.0	False
726.141	0.0	1Suff w/o Lat.	12	726141	musical	1.0	0.0	False
727.416	0.0	0Suff w/o Lat.	2	727416	decor	1.0	1.0	True
728.95	0.0	2Suff RealStemNW	25	728950	educatality	0.0	1.0	False
730.492	0.0	2Suff RealStemNW	25	730492	marginical	0.0	1.0	False
732.084	0.0	0Suff NW	4	732084	tipe	0.0	1.0	False
733.143	0.0	2Suff PseudoStemNW	24	733143	figically	0.0	1.0	False
734.693	0.0	0Suff w/o Lat.	2	734693	intense	1.0	0.0	False
735.794	0.0	2Suff RealStemNW	25	735794	immunability	0.0	n/a	False
738.203	0.0	1Suff PseudoStemNW	14	738203	prowertion	0.0	1.0	False
739.67	0.0	1Suff PseudoStemNW	14	739670	snoughtless	0.0	1.0	False
741.645	0.0	2Suff Composite	23	741645	revitalization	1.0	0.0	False
742.987	0.0	2Suff RealStemNW	25	742987	notural	0.0	1.0	False
744.138	0.0	0Suff w/o Lat.	2	744138	hero	1.0	0.0	False
745.146	0.0	2Suff w/o Lat.	22	745146	idealization	1.0	0.0	False
746.097	0.0	0Suff w/o Lat.	2	746097	myth	1.0	0.0	False
747.122	0.0	0Suff NW	4	747122	devade	0.0	1.0	False
749.081	0.0	1Suff w/o Lat.	12	749081	thoughtless	1.0	0.0	False
750.123	0.0	0Suff NW	4	750123	stumia	0.0	1.0	False
751.407	0.0	2Suff PseudoStemNW	24	751407	pafferentiate	0.0	1.0	False
752.69	0.0	1Suff RealStemNW	15	752690	delightive	0.0	1.0	False
754.674	0.0	1Suff w/o Lat.	12	754674	forgetful	1.0	0.0	False
755.816	0.0	1Suff w/o Lat.	12	755816	believable	1.0	0.0	False
757.025	0.0	2Suff PseudoStemNW	24	757025	gloofully	0.0	0.0	True
759.001	0.0	2Suff w/o Lat.	22	759001	easily	1.0	0.0	False
760.026	0.0	1Suff PseudoStemNW	14	760026	pavediadist	0.0	1.0	False
761.368	0.0	0Suff w/o Lat.	2	761368	lead	1.0	1.0	True
762.502	0.0	0Suff NW	4	762502	sushect	0.0	1.0	False
764.786	0.0	2Suff PseudoStemNW	24	764786	rerativity	0.0	1.0	False
766.203	0.0	2Suff w/o Lat.	22	766203	sleepily	1.0	0.0	False
767.945	0.0	2Suff PseudoStemNW	24	767945	cossetitively	0.0	1.0	False
769.329	0.0	1Suff RealStemNW	15	769329	marginic	0.0	1.0	False
771.263	0.0	2Suff PseudoStemNW	24	771263	tutiously	0.0	1.0	False
772.38	0.0	2Suff RealStemNW	25	772380	friendionist	0.0	1.0	False
774.222	0.0	1Suff w/o Lat.	12	774222	leader	1.0	0.0	False
775.522	0.0	0Suff w/o Lat.	2	775522	glee	1.0	0.0	False
776.673	0.0	2Suff w/o Lat.	22	776673	relativism	1.0	0.0	False
777.848	0.0	1Suff w/o Lat.	12	777848	childish	1.0	0.0	False
778.924	0.0	0Suff w/o Lat.	2	778924	believe	1.0	0.0	False
779.874	0.0	1Suff RealStemNW	15	779874	logicic	0.0	0.0	True
780.832	0.0	1Suff w/o Lat.	12	780832	rhythmic	1.0	0.0	False
782.058	0.0	1Suff RealStemNW	15	782058	soulive	0.0	1.0	False
783.642	0.0	1Suff w/o Lat.	12	783642	useless	1.0	0.0	False
784.692	0.0	2Suff PseudoStemNW	24	784692	detismsfully	0.0	1.0	False
786.868	0.0	2Suff w/o Lat.	22	786868	harmlessly	1.0	0.0	False
788.001	0.0	1Suff w/o Lat.	12	788001	harmless	1.0	0.0	False
789.043	0.0	0Suff w/o Lat.	2	789043	substance	1.0	0.0	False
790.185	0.0	0Suff w/o Lat.	2	790185	drama	1.0	0.0	False
791.069	0.0	1Suff w/o Lat.	12	791069	notify	1.0	0.0	False
792.153	0.0	2Suff RealStemNW	25	792153	subjectfully	0.0	0.0	True
793.578	0.0	0Suff w/ Lat.	1	793578	instruct	1.0	0.0	False
795.104	0.0	1Suff w/ Lat.	11	795104	affection	1.0	0.0	False
796.296	0.0	1Suff w/o Lat.	12	796296	gracious	1.0	0.0	False
797.529	0.0	0Suff NW	4	797529	prodfess	0.0	1.0	False
798.738	0.0	1Suff w/o Lat.	12	798738	originate	1.0	0.0	False
800.097	0.0	1Suff RealStemNW	15	800097	architectian	0.0	1.0	False
801.514	0.0	1Suff w/o Lat.	12	801514	immunize	1.0	0.0	False
802.789	0.0	2Suff PseudoStemNW	24	802789	peadership	0.0	1.0	False
803.915	0.0	1Suff w/ Lat.	11	803915	available	1.0	0.0	False
813.267	0.0	0Suff w/o Lat.	2	813267	design	1.0	0.0	False
814.209	0.0	1Suff RealStemNW	15	814209	basly	0.0	1.0	False
815.368	0.0	0Suff w/o Lat.	2	815368	time	1.0	0.0	False
816.227	0.0	2Suff PseudoStemNW	24	816227	chierfully	0.0	1.0	False
817.427	0.0	0Suff NW	4	817427	chotintic	0.0	1.0	False
818.861	0.0	2Suff Composite	23	818861	satirical	1.0	0.0	False
820.061	0.0	2Suff w/o Lat.	22	820061	relationship	1.0	0.0	False
821.07	0.0	1Suff PseudoStemNW	14	821070	sushective	0.0	1.0	False
822.354	0.0	0Suff NW	4	822354	snight	0.0	1.0	False
823.771	0.0	0Suff w/o Lat.	2	823771	delight	1.0	0.0	False
824.946	0.0	1Suff PseudoStemNW	14	824946	appigental	0.0	1.0	False
826.13	0.0	1Suff RealStemNW	15	826130	ritualify	0.0	1.0	False
827.33	0.0	1Suff w/o Lat.	12	827330	mythical	1.0	0.0	False
828.589	0.0	2Suff RealStemNW	25	828589	provocatfully	0.0	0.0	True
830.189	0.0	2Suff w/o Lat.	22	830189	marketability	1.0	0.0	False
831.431	0.0	0Suff NW	4	831431	essoils	0.0	1.0	False
832.49	0.0	2Suff w/o Lat.	22	832490	orderliness	1.0	1.0	True
833.774	0.0	2Suff RealStemNW	25	833774	cheerability	0.0	1.0	False
835.466	0.0	1Suff PseudoStemNW	14	835466	reration	0.0	1.0	False
836.616	0.0	1Suff PseudoStemNW	14	836616	arful	0.0	1.0	False
837.792	0.0	1Suff w/ Lat.	11	837792	instruction	1.0	0.0	False
838.875	0.0	1Suff PseudoStemNW	14	838875	hodeful	0.0	1.0	False
840.017	0.0	2Suff RealStemNW	25	840017	vitalilessly	0.0	1.0	False
841.643	0.0	1Suff PseudoStemNW	14	841643	orifadate	0.0	1.0	False
842.777	0.0	2Suff Composite	23	842777	futuristic	1.0	0.0	False
843.818	0.0	1Suff PseudoStemNW	14	843818	paftial	0.0	1.0	False
844.877	0.0	2Suff Composite	23	844877	vitalization	1.0	0.0	False
845.936	0.0	2Suff w/ Lat.	21	845936	instructional	1.0	0.0	False
846.944	0.0	0Suff NW	4	846944	esdybit	0.0	1.0	False
848.02	0.0	2Suff RealStemNW	25	848020	transitality	0.0	1.0	False
850.029	0.0	2Suff PseudoStemNW	24	850029	snoughtlessly	0.0	1.0	False
851.696	0.0	2Suff w/o Lat.	22	851696	thickener	1.0	1.0	True
852.746	0.0	2Suff RealStemNW	25	852746	restiousness	0.0	1.0	False
854.355	0.0	1Suff PseudoStemNW	14	854355	worchless	0.0	1.0	False
855.322	0.0	2Suff PseudoStemNW	24	855322	priueurantly	0.0	1.0	False
856.381	0.0	0Suff NW	4	856381	devesug	0.0	1.0	False
857.323	0.0	1Suff w/o Lat.	12	857323	essential	1.0	0.0	False
858.54	0.0	2Suff w/o Lat.	22	858540	leadership	1.0	0.0	False
859.657	0.0	2Suff w/o Lat.	22	859657	mythically	1.0	1.0	True
861.099	0.0	1Suff w/o Lat.	12	861099	orderly	1.0	0.0	False
862.458	0.0	1Suff RealStemNW	15	862458	realify	0.0	1.0	False
863.766	0.0	1Suff w/o Lat.	12	863766	materialist	1.0	0.0	False
865.208	0.0	2Suff w/ Lat.	21	865208	projectionist	1.0	0.0	False
866.742	0.0	2Suff RealStemNW	25	866742	harmiously	0.0	1.0	False
868.526	0.0	0Suff NW	4	868526	pipsist	0.0	1.0	False
869.618	0.0	2Suff RealStemNW	25	869618	fatical	0.0	1.0	False
870.893	0.0	2Suff Composite	23	870893	simplification	1.0	0.0	False
872.01	0.0	0Suff NW	4	872010	manhet	0.0	1.0	False
873.328	0.0	1Suff RealStemNW	15	873328	furance	0.0	1.0	False
874.695	0.0	2Suff w/o Lat.	22	874695	editorial	1.0	0.0	False
875.92	0.0	2Suff RealStemNW	25	875920	editionate	0.0	1.0	False
877.37	0.0	0Suff w/o Lat.	2	877370	triumph	1.0	0.0	False
878.829	0.0	2Suff RealStemNW	25	878829	commutfully	0.0	1.0	False
880.246	0.0	1Suff PseudoStemNW	14	880246	subplencial	0.0	1.0	False
881.847	0.0	1Suff w/o Lat.	12	881847	guardian	1.0	0.0	False
883.081	0.0	2Suff RealStemNW	25	883081	relatifiable	0.0	1.0	False
884.648	0.0	0Suff w/o Lat.	2	884648	protect	1.0	0.0	False
886.215	0.0	1Suff w/o Lat.	12	886215	thicken	1.0	1.0	True
887.29	0.0	1Suff PseudoStemNW	14	887290	eetward	0.0	1.0	False
888.532	0.0	0Suff NW	4	888532	worch	0.0	1.0	False
889.541	0.0	2Suff Composite	23	889541	affectation	1.0	0.0	False
890.708	0.0	0Suff NW	4	890708	mevion	0.0	1.0	False
891.967	0.0	0Suff w/o Lat.	2	891967	part	1.0	0.0	False
893.059	0.0	0Suff w/o Lat.	2	893059	margin	1.0	0.0	False
894.109	0.0	2Suff w/o Lat.	22	894109	confessional	1.0	0.0	False
895.326	0.0	2Suff w/o Lat.	22	895326	architectural	1.0	0.0	False
896.701	0.0	1Suff RealStemNW	15	896701	provocatful	0.0	1.0	False
898.394	0.0	1Suff w/o Lat.	12	898394	wakeful	1.0	1.0	True
899.752	0.0	0Suff w/o Lat.	2	899752	music	1.0	0.0	False
900.761	0.0	2Suff w/o Lat.	22	900761	racially	1.0	0.0	False
901.945	0.0	0Suff w/ Lat.	1	901945	predict	1.0	0.0	False
903.287	0.0	0Suff w/o Lat.	2	903287	market	1.0	0.0	False
904.654	0.0	2Suff PseudoStemNW	24	904654	concolerably	0.0	1.0	False
906.046	0.0	2Suff w/o Lat.	22	906046	functionally	1.0	0.0	False
907.571	0.0	0Suff w/o Lat.	2	907571	soul	1.0	1.0	True
908.697	0.0	1Suff RealStemNW	15	908697	immunist	0.0	1.0	False
909.972	0.0	2Suff RealStemNW	25	909972	substanceical	0.0	1.0	False
911.498	0.0	1Suff w/o Lat.	12	911498	designate	1.0	1.0	True
912.781	0.0	1Suff w/o Lat.	12	912781	peaceful	1.0	0.0	False
914.007	0.0	1Suff RealStemNW	15	914007	instructate	0.0	1.0	False
915.374	0.0	1Suff w/o Lat.	12	915374	global	1.0	0.0	False
916.566	0.0	0Suff w/o Lat.	2	916566	direct	1.0	0.0	False
917.85	0.0	0Suff w/o Lat.	2	917850	confess	1.0	0.0	False
919.0	0.0	0Suff w/o Lat.	2	919000	pole	1.0	0.0	False
920.425	0.0	0Suff NW	4	920425	grame	0.0	1.0	False
921.617	0.0	0Suff NW	4	921617	mistile	0.0	1.0	False
922.818	0.0	1Suff w/o Lat.	12	922818	dramatize	1.0	0.0	False
924.36	0.0	2Suff RealStemNW	25	924360	agreeally	0.0	1.0	False
925.885	0.0	2Suff w/o Lat.	22	925885	musically	1.0	0.0	False
927.127	0.0	2Suff w/o Lat.	22	927127	hopefully	1.0	0.0	False
928.336	0.0	0Suff w/o Lat.	2	928336	ideal	1.0	0.0	False
929.32	0.0	2Suff PseudoStemNW	24	929320	reratively	0.0	1.0	False
930.57	0.0	2Suff w/o Lat.	22	930570	decorative	1.0	0.0	False
931.746	0.0	1Suff PseudoStemNW	14	931746	fralatic	0.0	1.0	False
932.946	0.0	0Suff NW	4	932946	mowth	0.0	1.0	False
934.18	0.0	1Suff w/o Lat.	12	934180	friendly	1.0	0.0	False
935.788	0.0	2Suff PseudoStemNW	24	935788	onnensively	0.0	1.0	False
936.997	0.0	1Suff PseudoStemNW	14	936997	meabonal	0.0	1.0	False
938.173	0.0	0Suff w/o Lat.	2	938173	accident	1.0	0.0	False
939.248	0.0	2Suff RealStemNW	25	939248	isolatmental	0.0	1.0	False
940.882	0.0	0Suff NW	4	940882	dehone	0.0	1.0	False
941.999	0.0	1Suff PseudoStemNW	14	941999	rhylphic	0.0	1.0	False
943.232	0.0	2Suff PseudoStemNW	24	943232	snoughtfully	0.0	1.0	False
944.441	0.0	2Suff w/o Lat.	22	944441	softener	1.0	0.0	False
945.867	0.0	0Suff NW	4	945867	coppent	0.0	1.0	False
946.975	0.0	0Suff w/o Lat.	2	946975	exhaust	1.0	0.0	False
948.059	0.0	1Suff PseudoStemNW	14	948059	degorate	0.0	1.0	False
949.434	0.0	2Suff w/o Lat.	22	949434	developmental	1.0	0.0	False
951.26	0.0	0Suff NW	4	951260	eltene	0.0	1.0	False
952.352	0.0	2Suff RealStemNW	25	952352	guiltioner	0.0	1.0	False
953.777	0.0	1Suff PseudoStemNW	14	953777	imoatist	0.0	1.0	False
954.778	0.0	2Suff RealStemNW	25	954778	satirally	0.0	1.0	False
956.311	0.0	0Suff NW	4	956311	halk	0.0	1.0	False
957.237	0.0	1Suff PseudoStemNW	14	957237	essoilial	0.0	1.0	False
958.437	0.0	2Suff w/ Lat.	21	958437	availability	1.0	0.0	False
959.646	0.0	1Suff PseudoStemNW	14	959646	prodfessive	0.0	1.0	False
960.796	0.0	2Suff PseudoStemNW	24	960796	mosimization	0.0	1.0	False
962.522	0.0	1Suff w/o Lat.	12	962522	reasonable	1.0	0.0	False
964.164	0.0	0Suff w/o Lat.	2	964164	sterile	1.0	0.0	False
978.735	0.0	0Suff NW	4	978735	attossin	0.0	1.0	False
979.969	0.0	2Suff w/o Lat.	22	979969	decisiveness	1.0	0.0	False
981.186	0.0	1Suff w/o Lat.	12	981186	moisture	1.0	0.0	False
982.369	0.0	2Suff w/o Lat.	22	982369	occasionally	1.0	0.0	False
983.486	0.0	2Suff w/o Lat.	22	983486	awfully	1.0	0.0	False
984.812	0.0	1Suff w/o Lat.	12	984812	successful	1.0	0.0	False
985.854	0.0	2Suff w/o Lat.	22	985854	wakefulness	1.0	1.0	True
987.271	0.0	1Suff w/o Lat.	12	987271	painful	1.0	0.0	False
988.288	0.0	2Suff w/o Lat.	22	988288	speedily	1.0	0.0	False
989.522	0.0	0Suff NW	4	989522	thack	0.0	1.0	False
990.589	0.0	2Suff RealStemNW	25	990589	polioner	0.0	1.0	False
991.731	0.0	2Suff RealStemNW	25	991731	quotfully	0.0	1.0	False
992.956	0.0	1Suff w/o Lat.	12	992956	logical	1.0	0.0	False
993.973	0.0	1Suff w/o Lat.	12	993973	magnetic	1.0	0.0	False
995.04	0.0	2Suff w/o Lat.	22	995040	deadliness	1.0	0.0	False
996.515	0.0	0Suff w/o Lat.	2	996515	note	1.0	0.0	False
997.941	0.0	0Suff w/o Lat.	2	997941	finance	1.0	0.0	False
999.125	0.0	2Suff w/o Lat.	22	999125	isolationist	1.0	1.0	True
1000.95	0.0	1Suff w/ Lat.	11	1000950	subjective	1.0	0.0	False
1001.992	0.0	0Suff w/o Lat.	2	1001992	edit	1.0	0.0	False
1002.909	0.0	0Suff w/o Lat.	2	1002909	fate	1.0	0.0	False
1003.943	0.0	2Suff w/o Lat.	22	1003943	additional	1.0	0.0	False
1005.018	0.0	0Suff w/o Lat.	2	1005018	develop	1.0	0.0	False
1006.027	0.0	2Suff w/o Lat.	22	1006027	glorification	1.0	1.0	True
1007.577	0.0	0Suff w/o Lat.	2	1007577	origin	1.0	0.0	False
1008.486	0.0	0Suff w/o Lat.	2	1008486	ethic	1.0	0.0	False
1009.603	0.0	0Suff w/o Lat.	2	1009603	aim	1.0	1.0	True
1011.045	0.0	2Suff RealStemNW	25	1011045	persuasfully	0.0	0.0	True
1012.545	0.0	0Suff NW	4	1012545	bant	0.0	1.0	False
1013.512	0.0	0Suff NW	4	1013512	sest	0.0	1.0	False
1014.479	0.0	0Suff w/o Lat.	2	1014479	define	1.0	0.0	False
1015.63	0.0	2Suff RealStemNW	25	1015630	periodally	0.0	1.0	False
1016.913	0.0	1Suff w/o Lat.	12	1016913	intensive	1.0	0.0	False
1018.656	0.0	2Suff w/o Lat.	22	1018656	manliness	1.0	1.0	True
1019.773	0.0	2Suff w/o Lat.	22	1019773	reasonably	1.0	0.0	False
1021.265	0.0	1Suff w/o Lat.	12	1021265	trivial	1.0	0.0	False
1022.707	0.0	2Suff w/o Lat.	22	1022707	persuasively	1.0	0.0	False
1024.291	0.0	2Suff PseudoStemNW	24	1024291	falality	0.0	1.0	False
1026.608	0.0	2Suff RealStemNW	25	1026608	musicical	0.0	1.0	False
1028.184	0.0	2Suff Composite	23	1028184	allegation	1.0	0.0	False
1029.526	0.0	1Suff w/o Lat.	12	1029526	protection	1.0	0.0	False
1030.443	0.0	0Suff w/o Lat.	2	1030443	stealth	1.0	0.0	False
1031.476	0.0	2Suff RealStemNW	25	1031476	deadionist	0.0	1.0	False
1032.827	0.0	1Suff RealStemNW	15	1032827	developward	0.0	1.0	False
1034.377	0.0	2Suff PseudoStemNW	24	1034377	desalkation	0.0	1.0	False
1035.661	0.0	1Suff RealStemNW	15	1035661	agreeless	0.0	1.0	False
1036.886	0.0	2Suff Composite	23	1036886	biblical	1.0	0.0	False
1038.062	0.0	2Suff w/ Lat.	21	1038062	impressionist	1.0	0.0	False
1039.27	0.0	2Suff w/o Lat.	22	1039270	educational	1.0	0.0	False
1040.412	0.0	2Suff Composite	23	1040412	pasteurization	1.0	0.0	False
1041.721	0.0	2Suff RealStemNW	25	1041721	governancial	0.0	1.0	False
1043.096	0.0	2Suff w/ Lat.	21	1043096	affirmatively	1.0	0.0	False
1044.497	0.0	0Suff NW	4	1044497	degor	0.0	1.0	False
1045.622	0.0	0Suff NW	4	1045622	eet	0.0	1.0	False
1046.631	0.0	1Suff w/o Lat.	12	1046631	different	1.0	0.0	False
1047.723	0.0	1Suff w/o Lat.	12	1047723	financial	1.0	0.0	False
1048.682	0.0	2Suff PseudoStemNW	24	1048682	pafleurization	0.0	1.0	False
1049.89	0.0	1Suff w/o Lat.	12	1049890	soften	1.0	0.0	False
1050.991	0.0	2Suff Composite	23	1050991	canonical	1.0	1.0	True
1052.308	0.0	2Suff Composite	23	1052308	organization	1.0	0.0	False
1053.508	0.0	2Suff PseudoStemNW	24	1053508	degorative	0.0	0.0	True
1054.742	0.0	2Suff RealStemNW	25	1054742	poetally	0.0	1.0	False
1055.992	0.0	1Suff RealStemNW	15	1055992	exhibitate	0.0	1.0	False
1057.868	0.0	0Suff NW	4	1057868	goult	0.0	1.0	False
1058.835	0.0	0Suff w/o Lat.	2	1058835	govern	1.0	1.0	True
1060.002	0.0	1Suff w/o Lat.	12	1060002	cheerful	1.0	0.0	False
1061.219	0.0	2Suff PseudoStemNW	24	1061219	pasnetically	0.0	1.0	False
1062.819	0.0	2Suff PseudoStemNW	24	1062819	cidlical	0.0	1.0	False
1064.011	0.0	2Suff PseudoStemNW	24	1064011	avoldability	0.0	1.0	False
1065.228	0.0	2Suff w/ Lat.	21	1065228	affectionate	1.0	0.0	False
1066.537	0.0	2Suff RealStemNW	25	1066537	guardifiance	0.0	1.0	False
1067.871	0.0	0Suff NW	4	1067871	arx	0.0	1.0	False
1068.929	0.0	1Suff PseudoStemNW	14	1068929	sorken	0.0	1.0	False
1070.255	0.0	1Suff PseudoStemNW	14	1070255	falal	0.0	1.0	False
1071.38	0.0	1Suff PseudoStemNW	14	1071380	wrotious	0.0	1.0	False
1072.739	0.0	2Suff PseudoStemNW	24	1072739	restittably	0.0	1.0	False
1074.389	0.0	2Suff Composite	23	1074389	deterministic	1.0	0.0	False
1075.757	0.0	2Suff PseudoStemNW	24	1075757	devesugmental	0.0	1.0	False
1077.049	0.0	1Suff RealStemNW	15	1077049	successate	0.0	1.0	False
1078.824	0.0	1Suff PseudoStemNW	14	1078824	mosimize	0.0	1.0	False
1080.425	0.0	1Suff w/ Lat.	11	1080425	progressive	1.0	0.0	False
1081.542	0.0	0Suff NW	4	1081542	wroty	0.0	1.0	False
1082.75	0.0	2Suff PseudoStemNW	24	1082750	utefully	0.0	1.0	False
1084.176	0.0	2Suff w/o Lat.	22	1084176	commentator	1.0	0.0	False
1085.343	0.0	1Suff w/o Lat.	12	1085343	addition	1.0	0.0	False
1086.376	0.0	2Suff w/o Lat.	22	1086376	familiarity	1.0	0.0	False
1087.627	0.0	1Suff PseudoStemNW	14	1087627	girernment	0.0	1.0	False
1088.861	0.0	2Suff Composite	23	1088861	confederation	1.0	0.0	False
1090.344	0.0	0Suff NW	4	1090344	hesa	0.0	1.0	False
1091.545	0.0	0Suff NW	4	1091545	preguct	0.0	1.0	False
1092.945	0.0	2Suff w/o Lat.	22	1092945	intensively	1.0	0.0	False
1094.504	0.0	0Suff NW	4	1094504	desalk	0.0	1.0	False
1095.754	0.0	1Suff w/o Lat.	12	1095754	easy	1.0	0.0	False
1096.796	0.0	2Suff w/o Lat.	22	1096796	transitional	1.0	0.0	False
1097.905	0.0	0Suff NW	4	1097905	fale	0.0	1.0	False
1099.322	0.0	0Suff w/o Lat.	2	1099322	speed	1.0	0.0	False
1100.414	0.0	2Suff Composite	23	1100414	mechanistic	1.0	1.0	True
1102.098	0.0	2Suff PseudoStemNW	24	1102098	thackener	0.0	1.0	False
1103.123	0.0	2Suff w/o Lat.	22	1103123	originator	1.0	1.0	True
1104.474	0.0	2Suff w/o Lat.	22	1104474	friendliness	1.0	0.0	False
1106.774	0.0	0Suff w/o Lat.	2	1106774	man	1.0	0.0	False
1107.666	0.0	2Suff PseudoStemNW	24	1107666	nerbously	0.0	1.0	False
1109.092	0.0	2Suff PseudoStemNW	24	1109092	rhylphically	0.0	1.0	False
1110.567	0.0	2Suff w/o Lat.	22	1110567	fatalist	1.0	0.0	False
1111.776	0.0	1Suff PseudoStemNW	14	1111776	dehonite	0.0	1.0	False
1113.035	0.0	1Suff w/o Lat.	12	1113035	decisive	1.0	0.0	False
1114.285	0.0	2Suff PseudoStemNW	24	1114285	diructorship	0.0	1.0	False
1115.51	0.0	0Suff NW	4	1115510	chansot	0.0	1.0	False
1116.786	0.0	0Suff w/o Lat.	2	1116786	family	1.0	0.0	False
1117.869	0.0	0Suff NW	4	1117869	subplence	0.0	1.0	False
1119.362	0.0	0Suff w/o Lat.	2	1119362	provoke	1.0	0.0	False
1120.929	0.0	1Suff PseudoStemNW	14	1120929	wrotify	0.0	1.0	False
1122.012	0.0	2Suff w/o Lat.	22	1122012	essentially	1.0	0.0	False
1123.646	0.0	2Suff w/o Lat.	22	1123646	guiltiness	1.0	1.0	True
1124.738	0.0	1Suff PseudoStemNW	14	1124738	rumical	0.0	1.0	False
1126.105	0.0	0Suff w/o Lat.	2	1126105	trivia	1.0	0.0	False
1127.989	0.0	1Suff PseudoStemNW	14	1127989	stumial	0.0	1.0	False
1129.056	0.0	2Suff w/o Lat.	22	1129056	soulfully	1.0	1.0	True
1130.232	0.0	2Suff w/o Lat.	22	1130232	designation	1.0	0.0	False
1148.762	0.0	2Suff PseudoStemNW	24	1148762	arfulness	0.0	1.0	False
1150.496	0.0	1Suff w/o Lat.	12	1150496	fatal	1.0	0.0	False
1151.68	0.0	0Suff NW	4	1151680	ewsib	0.0	1.0	False
1152.864	0.0	1Suff w/o Lat.	12	1152864	definite	1.0	0.0	False
1154.322	0.0	2Suff w/o Lat.	22	1154322	immunization	1.0	0.0	False
1155.414	0.0	1Suff w/o Lat.	12	1155414	glorify	1.0	0.0	False
1156.715	0.0	1Suff PseudoStemNW	14	1156715	hythical	0.0	1.0	False
1158.174	0.0	0Suff NW	4	1158174	restit	0.0	1.0	False
1159.607	0.0	2Suff w/o Lat.	22	1159607	leaderless	1.0	0.0	False
1160.908	0.0	0Suff NW	4	1160908	prowert	0.0	1.0	False
1162.041	0.0	2Suff PseudoStemNW	24	1162041	ictressionism	0.0	1.0	False
1163.484	0.0	1Suff RealStemNW	15	1163484	availless	0.0	1.0	False
1164.834	0.0	1Suff PseudoStemNW	14	1164834	cunerogial	0.0	1.0	False
1166.409	0.0	0Suff NW	4	1166409	falget	0.0	1.0	False
1167.41	0.0	1Suff w/o Lat.	12	1167410	sterilize	1.0	0.0	False
1168.935	0.0	1Suff w/o Lat.	12	1168935	aimless	1.0	0.0	False
1170.477	0.0	2Suff w/o Lat.	22	1170477	forgetfulness	1.0	0.0	False
1171.903	0.0	1Suff w/o Lat.	12	1171903	healthy	1.0	0.0	False
1173.161	0.0	0Suff NW	4	1173161	paffer	0.0	1.0	False
1174.295	0.0	2Suff w/o Lat.	22	1174295	periodical	1.0	0.0	False
1175.654	0.0	0Suff NW	4	1175654	glibe	0.0	1.0	False
1176.988	0.0	0Suff NW	4	1176988	ais	0.0	1.0	False
1178.23	0.0	0Suff w/o Lat.	2	1178230	peace	1.0	0.0	False
1179.73	0.0	0Suff NW	4	1179730	reut	0.0	1.0	False
1180.989	0.0	0Suff w/o Lat.	2	1180989	order	1.0	0.0	False
1182.189	0.0	0Suff w/o Lat.	2	1182189	differ	1.0	0.0	False
1183.581	0.0	2Suff w/o Lat.	22	1183581	painfully	1.0	0.0	False
1184.89	0.0	1Suff RealStemNW	15	1184890	restable	0.0	0.0	True
1186.299	0.0	0Suff w/o Lat.	2	1186299	assassin	1.0	0.0	False
1187.858	0.0	2Suff w/o Lat.	22	1187858	nervousness	1.0	0.0	False
1189.066	0.0	1Suff w/o Lat.	12	1189066	decorate	1.0	0.0	False
1190.317	0.0	2Suff RealStemNW	25	1190317	idealional	0.0	1.0	False
1191.651	0.0	0Suff NW	4	1191651	rhylph	0.0	1.0	False
1192.759	0.0	2Suff PseudoStemNW	24	1192759	banically	0.0	1.0	False
1193.943	0.0	0Suff w/ Lat.	1	1193943	avail	1.0	1.0	True
1195.102	0.0	1Suff w/o Lat.	12	1195102	considerate	1.0	0.0	False
1196.302	0.0	1Suff PseudoStemNW	14	1196302	tipely	0.0	1.0	False
1197.502	0.0	2Suff RealStemNW	25	1197502	decisfully	0.0	0.0	True
1198.994	0.0	2Suff RealStemNW	25	1198994	ritualional	0.0	1.0	False
1200.712	0.0	0Suff w/o Lat.	2	1200712	consider	1.0	0.0	False
1201.854	0.0	2Suff PseudoStemNW	24	1201854	pipplification	0.0	1.0	False
1202.962	0.0	2Suff Composite	23	1202962	stratification	1.0	1.0	True
1204.279	0.0	0Suff w/o Lat.	2	1204279	season	1.0	0.0	False
1205.263	0.0	2Suff w/o Lat.	22	1205263	nervously	1.0	0.0	False
1206.322	0.0	2Suff PseudoStemNW	24	1206322	artlitackural	0.0	1.0	False
1207.814	0.0	0Suff w/o Lat.	2	1207814	cheer	1.0	0.0	False
1208.856	0.0	0Suff w/o Lat.	2	1208856	thought	1.0	0.0	False
1209.981	0.0	0Suff NW	4	1209981	appigent	0.0	1.0	False
1211.073	0.0	2Suff PseudoStemNW	24	1211073	deabonably	0.0	1.0	False
1212.24	0.0	0Suff NW	4	1212240	cossete	0.0	1.0	False
1213.366	0.0	2Suff PseudoStemNW	24	1213366	eetwardly	0.0	1.0	False
1214.574	0.0	2Suff PseudoStemNW	24	1214574	steadthily	0.0	1.0	False
1215.841	0.0	2Suff PseudoStemNW	24	1215841	worchlessness	0.0	1.0	False
1216.967	0.0	2Suff PseudoStemNW	24	1216967	stumialize	0.0	1.0	False
1218.1	0.0	2Suff RealStemNW	25	1218100	differalism	0.0	1.0	False
1219.301	0.0	2Suff w/o Lat.	22	1219301	directorship	1.0	1.0	True
1220.576	0.0	1Suff RealStemNW	15	1220576	forgetive	0.0	1.0	False
1222.118	0.0	2Suff w/o Lat.	22	1222118	gleefully	1.0	0.0	False
1223.66	0.0	0Suff w/ Lat.	1	1223660	affect	1.0	0.0	False
1224.844	0.0	0Suff NW	4	1224844	stitile	0.0	1.0	False
1226.128	0.0	2Suff w/o Lat.	22	1226128	notably	1.0	0.0	False
1227.328	0.0	1Suff w/o Lat.	12	1227328	timely	1.0	0.0	False
1228.453	0.0	1Suff PseudoStemNW	14	1228453	gulbsian	0.0	1.0	False
1229.554	0.0	1Suff RealStemNW	15	1229554	sterilist	0.0	1.0	False
1230.713	0.0	0Suff w/ Lat.	1	1230713	subject	1.0	0.0	False
1231.838	0.0	1Suff w/o Lat.	12	1231838	worthless	1.0	0.0	False
1232.947	0.0	2Suff w/o Lat.	22	1232947	faithfully	1.0	0.0	False
1234.089	0.0	0Suff NW	4	1234089	girern	0.0	1.0	False
1235.272	0.0	2Suff PseudoStemNW	24	1235272	awditional	0.0	1.0	False
1236.406	0.0	1Suff RealStemNW	15	1236406	useive	0.0	1.0	False
1237.773	0.0	1Suff w/o Lat.	12	1237773	glorious	1.0	0.0	False
1239.107	0.0	1Suff RealStemNW	15	1239107	childory	0.0	1.0	False
1240.457	0.0	1Suff w/o Lat.	12	1240457	painless	1.0	0.0	False
1241.558	0.0	1Suff w/o Lat.	12	1241558	validate	1.0	0.0	False
1242.883	0.0	1Suff RealStemNW	15	1242883	familior	0.0	1.0	False
1244.058	0.0	1Suff RealStemNW	15	1244058	gleeive	0.0	1.0	False
1245.209	0.0	1Suff w/o Lat.	12	1245209	triumphant	1.0	0.0	False
1246.292	0.0	2Suff w/o Lat.	22	1246292	moisturize	1.0	0.0	False
1247.468	0.0	2Suff PseudoStemNW	24	1247468	pasklessly	0.0	1.0	False
1248.568	0.0	2Suff w/o Lat.	22	1248568	aimlessly	1.0	0.0	False
1249.793	0.0	2Suff PseudoStemNW	24	1249793	snightfully	0.0	1.0	False
1251.019	0.0	1Suff w/o Lat.	12	1251019	restless	1.0	0.0	False
1252.219	0.0	0Suff NW	4	1252219	chier	0.0	1.0	False
1253.361	0.0	1Suff w/o Lat.	12	1253361	periodic	1.0	0.0	False
1254.545	0.0	1Suff w/o Lat.	12	1254545	basic	1.0	1.0	True
1255.695	0.0	1Suff w/o Lat.	12	1255695	delightful	1.0	0.0	False
1256.862	0.0	2Suff w/o Lat.	22	1256862	definitely	1.0	0.0	False
1258.021	0.0	2Suff w/o Lat.	22	1258021	thoughtfully	1.0	0.0	False
1259.171	0.0	2Suff w/o Lat.	22	1259171	familiarize	1.0	0.0	False
1260.347	0.0	2Suff PseudoStemNW	24	1260347	vimidation	0.0	1.0	False
1261.747	0.0	0Suff w/o Lat.	2	1261747	friend	1.0	0.0	False
1262.864	0.0	1Suff PseudoStemNW	14	1262864	prebitable	0.0	0.0	True
1264.164	0.0	2Suff PseudoStemNW	24	1264164	tipeliness	0.0	1.0	False
1265.898	0.0	2Suff PseudoStemNW	24	1265898	nerbousness	0.0	1.0	False
1266.957	0.0	1Suff PseudoStemNW	14	1266957	falumful	0.0	1.0	False
1268.274	0.0	2Suff w/o Lat.	22	1268274	statistically	1.0	0.0	False
1269.766	0.0	1Suff w/o Lat.	12	1269766	profitable	1.0	0.0	False
1271.233	0.0	1Suff RealStemNW	15	1271233	assassinion	0.0	0.0	True
1272.309	0.0	2Suff w/o Lat.	22	1272309	governmental	1.0	0.0	False
1273.709	0.0	2Suff RealStemNW	25	1273709	fatalize	0.0	0.0	True
1274.993	0.0	0Suff w/ Lat.	1	1274993	concept	1.0	0.0	False
1276.043	0.0	0Suff w/o Lat.	2	1276043	add	1.0	0.0	False
1277.11	0.0	0Suff NW	4	1277110	meabon	0.0	1.0	False
1278.177	0.0	1Suff w/o Lat.	12	1278177	stealthy	1.0	0.0	False
1279.336	0.0	0Suff NW	4	1279336	rumic	0.0	1.0	False
1280.386	0.0	2Suff w/o Lat.	22	1280386	considerately	1.0	0.0	False
1281.77	0.0	2Suff PseudoStemNW	24	1281770	utelessness	0.0	1.0	False
1282.962	0.0	2Suff w/o Lat.	22	1282962	validation	1.0	0.0	False
1284.054	0.0	1Suff w/o Lat.	12	1284054	outward	1.0	1.0	True
1285.021	0.0	2Suff RealStemNW	25	1285021	fatantly	0.0	1.0	False
1286.413	0.0	2Suff RealStemNW	25	1286413	isolatliness	0.0	1.0	False
1287.755	0.0	1Suff RealStemNW	15	1287755	exhaustful	0.0	1.0	False
1289.156	0.0	2Suff w/o Lat.	22	1289156	healthily	1.0	0.0	False
1290.673	0.0	2Suff PseudoStemNW	24	1290673	distawksively	0.0	1.0	False
1291.715	0.0	0Suff w/ Lat.	1	1291715	progress	1.0	0.0	False
1293.148	0.0	1Suff w/ Lat.	11	1293148	extensive	1.0	0.0	False
1294.657	0.0	2Suff w/o Lat.	22	1294657	substantially	1.0	0.0	False
1295.833	0.0	2Suff w/o Lat.	22	1295833	worthlessness	1.0	0.0	False
1297.892	0.0	2Suff RealStemNW	25	1297892	accidentical	0.0	0.0	True
1312.396	0.0	0Suff w/o Lat.	2	1312396	poet	1.0	0.0	False
1313.413	0.0	2Suff w/o Lat.	22	1313413	uselessness	1.0	0.0	False
1314.663	0.0	0Suff w/ Lat.	1	1314663	extend	1.0	0.0	False
1315.747	0.0	0Suff w/o Lat.	2	1315747	comment	1.0	0.0	False
1316.689	0.0	2Suff w/o Lat.	22	1316689	relational	1.0	0.0	False
1317.906	0.0	0Suff w/o Lat.	2	1317906	child	1.0	0.0	False
1318.806	0.0	2Suff PseudoStemNW	24	1318806	mistilenly	0.0	1.0	False
1321.199	0.0	1Suff PseudoStemNW	14	1321199	ewsibal	0.0	1.0	False
1322.191	0.0	0Suff w/o Lat.	2	1322191	guard	1.0	0.0	False
1323.574	0.0	2Suff PseudoStemNW	24	1323574	rerational	0.0	1.0	False
1324.766	0.0	2Suff w/o Lat.	22	1324766	exhaustively	1.0	0.0	False
1326.625	0.0	2Suff w/o Lat.	22	1326625	isolationism	1.0	0.0	False
1328.901	0.0	0Suff NW	4	1328901	fleep	0.0	1.0	False
1330.01	0.0	1Suff w/o Lat.	12	1330010	statistical	1.0	0.0	False
1331.027	0.0	1Suff RealStemNW	15	1331027	marketless	0.0	0.0	True
1332.469	0.0	0Suff w/o Lat.	2	1332469	guilt	1.0	0.0	False
1333.986	0.0	0Suff w/o Lat.	2	1333986	thick	1.0	0.0	False
1335.261	0.0	0Suff NW	4	1335261	ippune	0.0	1.0	False
1336.312	0.0	2Suff PseudoStemNW	24	1336312	concuchualize	0.0	1.0	False
1337.595	0.0	1Suff w/o Lat.	12	1337595	awful	1.0	0.0	False
1338.871	0.0	1Suff RealStemNW	15	1338871	extensful	0.0	n/a	False
1341.263	0.0	1Suff w/o Lat.	12	1341263	speedy	1.0	0.0	False
1342.572	0.0	2Suff RealStemNW	25	1342572	affirmatfully	0.0	0.0	True
1343.814	0.0	2Suff Composite	23	1343814	characteristic	1.0	0.0	False
1344.923	0.0	0Suff NW	4	1344923	gulbs	0.0	1.0	False
1346.498	0.0	2Suff PseudoStemNW	24	1346498	stumiality	0.0	1.0	False
1347.74	0.0	2Suff w/o Lat.	22	1347740	relatively	1.0	0.0	False
1349.282	0.0	1Suff w/ Lat.	11	1349282	impression	1.0	0.0	False
1350.358	0.0	0Suff NW	4	1350358	helily	0.0	1.0	False
1351.608	0.0	2Suff RealStemNW	25	1351608	predictator	0.0	0.0	True
1352.9	0.0	1Suff w/o Lat.	12	1352900	ceremonial	1.0	0.0	False
1354.125	0.0	0Suff NW	4	1354125	miccess	0.0	1.0	False
1355.184	0.0	0Suff w/o Lat.	2	1355184	faith	1.0	0.0	False
1356.301	0.0	0Suff NW	4	1356301	finiles	0.0	1.0	False
1357.393	0.0	1Suff w/o Lat.	12	1357393	manly	1.0	0.0	False
1358.418	0.0	2Suff RealStemNW	25	1358418	categorally	0.0	0.0	True
1359.919	0.0	1Suff PseudoStemNW	14	1359919	analkable	0.0	1.0	False
1361.028	0.0	1Suff w/o Lat.	12	1361028	difference	1.0	0.0	False
1362.353	0.0	0Suff NW	4	1362353	urmer	0.0	1.0	False
1363.445	0.0	0Suff w/ Lat.	1	1363445	exhibit	1.0	0.0	False
1364.579	0.0	2Suff w/o Lat.	22	1364579	adaptability	1.0	0.0	False
1365.879	0.0	2Suff w/ Lat.	21	1365879	exhibitionism	1.0	0.0	False
1367.071	0.0	2Suff RealStemNW	25	1367071	editerize	0.0	1.0	False
1368.28	0.0	2Suff RealStemNW	25	1368280	revitalilessly	0.0	1.0	False
1369.789	0.0	1Suff w/o Lat.	12	1369789	gleeful	1.0	0.0	False
1371.072	0.0	2Suff PseudoStemNW	24	1371072	eltensively	0.0	1.0	False
1372.298	0.0	0Suff w/o Lat.	2	1372298	distinct	1.0	0.0	False
1373.431	0.0	1Suff PseudoStemNW	14	1373431	affallion	0.0	1.0	False
1375.04	0.0	2Suff PseudoStemNW	24	1375040	perburbation	0.0	0.0	True
1376.316	0.0	2Suff PseudoStemNW	24	1376316	pinonical	0.0	1.0	False
1377.516	0.0	1Suff w/o Lat.	12	1377516	graceful	1.0	0.0	False
1378.6	0.0	0Suff NW	4	1378600	paft	0.0	1.0	False
1379.658	0.0	2Suff PseudoStemNW	24	1379658	headthily	0.0	1.0	False
1381.25	0.0	0Suff w/o Lat.	2	1381250	moist	1.0	0.0	False
1382.251	0.0	0Suff NW	4	1382251	orifad	0.0	1.0	False
1383.46	0.0	2Suff w/o Lat.	22	1383460	protectionist	1.0	0.0	False
1384.768	0.0	1Suff w/o Lat.	12	1384768	original	1.0	0.0	False
1385.785	0.0	0Suff w/o Lat.	2	1385785	execute	1.0	0.0	False
1386.919	0.0	2Suff w/o Lat.	22	1386919	fatality	1.0	0.0	False
1388.061	0.0	2Suff RealStemNW	25	1388061	projectliness	0.0	1.0	False
1389.345	0.0	2Suff w/o Lat.	22	1389345	fatally	1.0	0.0	False
1390.828	0.0	2Suff PseudoStemNW	24	1390828	paftiality	0.0	1.0	False
1392.012	0.0	2Suff PseudoStemNW	24	1392012	inshemmation	0.0	1.0	False
1393.263	0.0	0Suff NW	4	1393263	detisms	0.0	1.0	False
1394.63	0.0	2Suff RealStemNW	25	1394630	believator	0.0	1.0	False
1396.055	0.0	2Suff RealStemNW	25	1396055	glorifilessly	0.0	1.0	False
1397.622	0.0	1Suff RealStemNW	15	1397622	persuasful	0.0	1.0	False
1398.989	0.0	0Suff w/o Lat.	2	1398989	health	1.0	0.0	False
1400.44	0.0	0Suff NW	4	1400440	frala	0.0	1.0	False
1401.548	0.0	2Suff PseudoStemNW	24	1401548	comlomation	0.0	1.0	False
1402.974	0.0	2Suff RealStemNW	25	1402974	moistantly	0.0	1.0	False
1404.574	0.0	1Suff w/o Lat.	12	1404574	substantial	1.0	0.0	False
1405.733	0.0	1Suff RealStemNW	15	1405733	hopeable	0.0	1.0	False
1407.117	0.0	1Suff PseudoStemNW	14	1407117	paskful	0.0	1.0	False
1408.192	0.0	1Suff RealStemNW	15	1408192	financeic	0.0	1.0	False
1409.292	0.0	1Suff RealStemNW	15	1409292	persistify	0.0	1.0	False
1410.568	0.0	2Suff w/o Lat.	22	1410568	rhythmically	1.0	0.0	False
1411.827	0.0	0Suff w/o Lat.	2	1411827	rest	1.0	0.0	False
1412.86	0.0	2Suff w/o Lat.	22	1412860	originality	1.0	0.0	False
1413.886	0.0	1Suff RealStemNW	15	1413886	differify	0.0	1.0	False
1415.394	0.0	2Suff PseudoStemNW	24	1415394	watefulness	0.0	1.0	False
1416.62	0.0	2Suff w/o Lat.	22	1416620	thoughtlessly	1.0	0.0	False
1417.937	0.0	2Suff Composite	23	1417937	perturbation	1.0	0.0	False
1419.471	0.0	1Suff RealStemNW	15	1419471	impressate	0.0	0.0	True
1420.779	0.0	2Suff w/o Lat.	22	1420779	partiality	1.0	0.0	False
1421.996	0.0	2Suff PseudoStemNW	24	1421996	chirdishly	0.0	1.0	False
1423.922	0.0	2Suff PseudoStemNW	24	1423922	instrovtional	0.0	1.0	False
1425.256	0.0	2Suff w/o Lat.	22	1425256	believably	1.0	0.0	False
1426.739	0.0	1Suff w/o Lat.	12	1426739	occasional	1.0	0.0	False
1427.815	0.0	2Suff PseudoStemNW	24	1427815	deterfuristic	0.0	1.0	False
1429.04	0.0	0Suff w/o Lat.	2	1429040	wake	1.0	0.0	False
1430.324	0.0	0Suff NW	4	1430324	uspasion	0.0	1.0	False
1431.674	0.0	1Suff RealStemNW	15	1431674	painable	0.0	1.0	False
1432.783	0.0	2Suff w/o Lat.	22	1432783	notification	1.0	0.0	False
1433.967	0.0	0Suff NW	4	1433967	analk	0.0	1.0	False
1435.025	0.0	0Suff w/o Lat.	2	1435025	forget	1.0	0.0	False
1436.076	0.0	1Suff w/o Lat.	12	1436076	sleepy	1.0	0.0	False
1437.468	0.0	1Suff PseudoStemNW	14	1437468	thashful	0.0	1.0	False
1438.685	0.0	0Suff NW	4	1438685	moel	0.0	1.0	False
1439.802	0.0	0Suff w/o Lat.	2	1439802	globe	1.0	1.0	True
1440.986	0.0	1Suff w/o Lat.	12	1440986	fasten	1.0	0.0	False
1442.453	0.0	2Suff PseudoStemNW	24	1442453	esdybitionism	0.0	1.0	False
1443.545	0.0	0Suff NW	4	1443545	lenction	0.0	1.0	False
1444.637	0.0	1Suff w/o Lat.	12	1444637	competitive	1.0	0.0	False
1445.662	0.0	2Suff w/o Lat.	22	1445662	magnetically	1.0	0.0	False
1446.812	0.0	1Suff PseudoStemNW	14	1446812	aisless	0.0	1.0	False
1447.979	0.0	1Suff w/o Lat.	12	1447979	hopeful	1.0	0.0	False
1449.53	0.0	2Suff w/o Lat.	22	1449530	logically	1.0	0.0	False
1450.505	0.0	1Suff w/o Lat.	12	1450505	execution	1.0	0.0	False
