onset	duration	trial_type	value	sample	stimulus	is_word	response	correct
48.047	0.0	2Suff w/o Lat.	22	48047	delightfully	1.0	0.0	False
50.214	0.0	2Suff w/o Lat.	22	50214	decisiveness	1.0	0.0	False
51.415	0.0	2Suff RealStemNW	25	51415	subjectously	0.0		False
53.815	0.0	0Suff w/o Lat.	2	53815	man	1.0	0.0	False
55.149	0.0	1Suff RealStemNW	15	55149	deadic	0.0	1.0	False
56.583	0.0	0Suff w/o Lat.	2	56583	govern	1.0	0.0	False
57.766	0.0	2Suff PseudoStemNW	24	57766	imoatization	0.0	1.0	False
59.592	0.0	0Suff w/o Lat.	2	59592	note	1.0	0.0	False
60.609	0.0	2Suff RealStemNW	25	60609	moistantly	0.0	1.0	False
62.66	0.0	2Suff RealStemNW	25	62660	marginical	0.0	0.0	True
63.943	0.0	0Suff w/o Lat.	2	63943	peace	1.0	0.0	False
65.21	0.0	2Suff PseudoStemNW	24	65210	nerbousness	0.0	1.0	False
66.661	0.0	2Suff Composite	23	66661	amplification	1.0	0.0	False
68.236	0.0	1Suff PseudoStemNW	14	68236	appigental	0.0	1.0	False
70.029	0.0	2Suff Composite	23	70029	biblical	1.0	0.0	False
71.304	0.0	1Suff RealStemNW	15	71304	gleeive	0.0	1.0	False
72.646	0.0	2Suff w/o Lat.	22	72646	essentially	1.0	0.0	False
73.863	0.0	1Suff w/o Lat.	12	73863	materialist	1.0	0.0	False
75.914	0.0	2Suff Composite	23	75914	mechanistic	1.0		False
78.314	0.0	1Suff w/o Lat.	12	78314	assassinate	1.0	0.0	False
79.673	0.0	1Suff w/o Lat.	12	79673	easy	1.0	0.0	False
80.824	0.0	2Suff RealStemNW	25	80824	agreeally	0.0	1.0	False
82.166	0.0	2Suff RealStemNW	25	82166	considerishly	0.0	0.0	True
83.416	0.0	0Suff NW	4	83416	glibe	0.0	1.0	False
84.991	0.0	2Suff PseudoStemNW	24	84991	rhylphically	0.0	1.0	False
86.559	0.0	0Suff w/o Lat.	2	86559	decide	1.0	0.0	False
87.584	0.0	0Suff w/o Lat.	2	87584	child	1.0	0.0	False
88.559	0.0	0Suff w/o Lat.	2	88559	add	1.0	0.0	False
89.426	0.0	2Suff w/ Lat.	21	89426	subjectivity	1.0	0.0	False
90.652	0.0	1Suff PseudoStemNW	14	90652	degorate	0.0	1.0	False
92.41	0.0	2Suff w/ Lat.	21	92410	predictably	1.0	0.0	False
94.094	0.0	2Suff w/o Lat.	22	94094	fastener	1.0	0.0	False
95.17	0.0	2Suff RealStemNW	25	95170	futurional	0.0	1.0	False
96.487	0.0	0Suff NW	4	96487	paft	0.0	1.0	False
97.779	0.0	0Suff NW	4	97779	pavediad	0.0	1.0	False
98.912	0.0	0Suff w/ Lat.	1	98912	progress	1.0	0.0	False
100.004	0.0	2Suff w/o Lat.	22	100004	usefully	1.0	0.0	False
101.088	0.0	1Suff PseudoStemNW	14	101088	uteless	0.0	1.0	False
102.222	0.0	1Suff PseudoStemNW	14	102222	stumial	0.0	1.0	False
103.539	0.0	0Suff w/o Lat.	2	103539	material	1.0	0.0	False
104.614	0.0	0Suff NW	4	104614	han	0.0	1.0	False
105.823	0.0	2Suff w/o Lat.	22	105823	fatality	1.0	0.0	False
107.265	0.0	2Suff w/o Lat.	22	107265	fatalist	1.0	0.0	False
108.507	0.0	0Suff w/o Lat.	2	108507	music	1.0	0.0	False
109.691	0.0	2Suff w/ Lat.	21	109691	impressionist	1.0	0.0	False
110.841	0.0	1Suff w/o Lat.	12	110841	dramatize	1.0	0.0	False
111.908	0.0	2Suff w/o Lat.	22	111908	adaptability	1.0	0.0	False
113.425	0.0	2Suff RealStemNW	25	113425	graceively	0.0	1.0	False
115.001	0.0	2Suff RealStemNW	25	115001	orderionist	0.0	1.0	False
116.535	0.0	1Suff w/o Lat.	12	116535	competitive	1.0	0.0	False
117.677	0.0	2Suff PseudoStemNW	24	117677	degorative	0.0	0.0	True
118.969	0.0	1Suff w/o Lat.	12	118969	designate	1.0	0.0	False
120.277	0.0	0Suff NW	4	120277	esdybit	0.0	1.0	False
121.369	0.0	1Suff w/o Lat.	12	121369	protection	1.0	0.0	False
122.278	0.0	0Suff NW	4	122278	moel	0.0	1.0	False
123.312	0.0	0Suff w/o Lat.	2	123312	guilt	1.0	0.0	False
124.154	0.0	1Suff PseudoStemNW	14	124154	hodeful	0.0	1.0	False
125.246	0.0	2Suff RealStemNW	25	125246	fatalize	0.0	0.0	True
126.138	0.0	0Suff w/o Lat.	2	126138	margin	1.0	0.0	False
127.23	0.0	0Suff NW	4	127230	steadth	0.0	1.0	False
128.73	0.0	0Suff NW	4	128730	thiend	0.0	1.0	False
129.914	0.0	2Suff RealStemNW	25	129914	hopeively	0.0	1.0	False
131.047	0.0	2Suff PseudoStemNW	24	131047	chierfully	0.0	1.0	False
132.581	0.0	1Suff PseudoStemNW	14	132581	lenctional	0.0	1.0	False
133.648	0.0	1Suff RealStemNW	15	133648	familior	0.0	1.0	False
134.94	0.0	2Suff w/o Lat.	22	134940	glorification	1.0	0.0	False
136.291	0.0	2Suff PseudoStemNW	24	136291	posicarization	0.0	1.0	False
137.699	0.0	2Suff w/o Lat.	22	137699	hopelessness	1.0	0.0	False
139.742	0.0	1Suff RealStemNW	15	139742	polit	0.0	1.0	False
140.9	0.0	1Suff PseudoStemNW	14	140900	nolable	0.0	1.0	False
142.134	0.0	1Suff PseudoStemNW	14	142134	urmerly	0.0	1.0	False
143.168	0.0	1Suff w/o Lat.	12	143168	soulful	1.0	0.0	False
144.735	0.0	1Suff RealStemNW	15	144735	magnetal	0.0	1.0	False
146.811	0.0	2Suff RealStemNW	25	146811	persistalism	0.0	1.0	False
148.086	0.0	2Suff w/o Lat.	22	148086	relativism	1.0	0.0	False
149.27	0.0	0Suff w/ Lat.	1	149270	avail	1.0	0.0	False
150.437	0.0	0Suff w/o Lat.	2	150437	harm	1.0	0.0	False
151.345	0.0	2Suff PseudoStemNW	24	151345	otification	0.0	1.0	False
152.937	0.0	1Suff RealStemNW	15	152937	gracance	0.0	1.0	False
154.088	0.0	1Suff w/o Lat.	12	154088	immunize	1.0	0.0	False
155.38	0.0	0Suff NW	4	155380	pead	0.0	1.0	False
156.914	0.0	2Suff w/o Lat.	22	156914	decorator	1.0	0.0	False
158.089	0.0	0Suff w/o Lat.	2	158089	worth	1.0	0.0	False
159.181	0.0	1Suff PseudoStemNW	14	159181	essoilial	0.0	1.0	False
160.44	0.0	1Suff PseudoStemNW	14	160440	fleedy	0.0	1.0	False
161.807	0.0	0Suff w/o Lat.	2	161807	globe	1.0	0.0	False
162.89	0.0	2Suff PseudoStemNW	24	162890	perburbation	0.0	1.0	False
163.966	0.0	2Suff RealStemNW	25	163966	forgetiveness	0.0	0.0	True
165.616	0.0	2Suff PseudoStemNW	24	165616	uspasionally	0.0	1.0	False
166.9	0.0	2Suff PseudoStemNW	24	166900	sorkener	0.0	1.0	False
168.025	0.0	2Suff RealStemNW	25	168025	persuasfully	0.0	1.0	False
169.418	0.0	1Suff PseudoStemNW	14	169418	priueurant	0.0	1.0	False
170.418	0.0	2Suff RealStemNW	25	170418	revitalilessly	0.0	0.0	True
171.843	0.0	1Suff RealStemNW	15	171843	furance	0.0	0.0	True
173.927	0.0	0Suff NW	4	173927	thash	0.0	1.0	False
175.511	0.0	0Suff w/o Lat.	2	175511	speed	1.0	0.0	False
176.861	0.0	2Suff RealStemNW	25	176861	impressliness	0.0	1.0	False
179.104	0.0	1Suff w/o Lat.	12	179104	forgetful	1.0	0.0	False
180.404	0.0	1Suff PseudoStemNW	14	180404	eetward	0.0	1.0	False
181.455	0.0	2Suff w/ Lat.	21	181455	subjectively	1.0	0.0	False
182.472	0.0	0Suff NW	4	182472	restit	0.0	1.0	False
183.497	0.0	1Suff w/ Lat.	11	183497	instruction	1.0	0.0	False
184.439	0.0	0Suff w/o Lat.	2	184439	intense	1.0	0.0	False
185.472	0.0	2Suff PseudoStemNW	24	185472	banically	0.0	1.0	False
186.589	0.0	1Suff PseudoStemNW	14	186589	reration	0.0	1.0	False
187.681	0.0	2Suff RealStemNW	25	187681	differalism	0.0	1.0	False
188.832	0.0	2Suff Composite	23	188832	utilization	1.0	0.0	False
189.882	0.0	2Suff w/o Lat.	22	189882	racially	1.0	0.0	False
190.907	0.0	0Suff NW	4	190907	betiece	0.0	1.0	False
192.016	0.0	1Suff RealStemNW	15	192016	thoughtive	0.0	0.0	True
193.058	0.0	1Suff w/o Lat.	12	193058	furious	1.0	0.0	False
194.092	0.0	0Suff w/o Lat.	2	194092	pole	1.0	0.0	False
195.109	0.0	1Suff w/o Lat.	12	195109	peaceful	1.0	0.0	False
195.976	0.0	2Suff w/o Lat.	22	195976	originality	1.0	0.0	False
196.909	0.0	1Suff PseudoStemNW	14	196909	chierful	0.0	1.0	False
197.976	0.0	2Suff PseudoStemNW	24	197976	pasnetically	0.0	1.0	False
199.235	0.0	2Suff PseudoStemNW	24	199235	deterfuristic	0.0	1.0	False
200.385	0.0	2Suff PseudoStemNW	24	200385	inshemmation	0.0	1.0	False
201.727	0.0	1Suff w/o Lat.	12	201727	guilty	1.0	0.0	False
206.754	0.0	2Suff w/o Lat.	22	206754	triviality	1.0	0.0	False
208.521	0.0	1Suff PseudoStemNW	14	208521	betiecable	0.0	1.0	False
209.68	0.0	1Suff w/o Lat.	12	209680	profitable	1.0	0.0	False
210.797	0.0	1Suff w/o Lat.	12	210797	graceful	1.0	0.0	False
211.739	0.0	2Suff PseudoStemNW	24	211739	paftiality	0.0	1.0	False
213.039	0.0	1Suff PseudoStemNW	14	213039	nolify	0.0	1.0	False
214.473	0.0	0Suff w/o Lat.	2	214473	fright	1.0	0.0	False
215.924	0.0	2Suff w/o Lat.	22	215924	relativity	1.0	0.0	False
217.182	0.0	0Suff NW	4	217182	nole	0.0	1.0	False
218.483	0.0	2Suff PseudoStemNW	24	218483	mosimization	0.0	1.0	False
219.875	0.0	2Suff PseudoStemNW	24	219875	avoldability	0.0	1.0	False
221.659	0.0	0Suff w/o Lat.	2	221659	market	1.0	0.0	False
222.692	0.0	2Suff w/o Lat.	22	222692	marketability	1.0	0.0	False
223.951	0.0	0Suff NW	4	223951	coul	0.0	1.0	False
224.993	0.0	1Suff w/ Lat.	11	224993	exhibition	1.0	0.0	False
225.935	0.0	0Suff w/o Lat.	2	225935	grace	1.0	0.0	False
227.027	0.0	2Suff Composite	23	227027	perturbation	1.0	0.0	False
228.244	0.0	2Suff RealStemNW	25	228244	educatality	0.0	1.0	False
229.536	0.0	2Suff PseudoStemNW	24	229536	gloofully	0.0	1.0	False
230.678	0.0	0Suff NW	4	230678	halk	0.0	1.0	False
231.728	0.0	2Suff RealStemNW	25	231728	conceptuical	0.0	1.0	False
233.279	0.0	2Suff RealStemNW	25	233279	musicical	0.0	0.0	True
234.513	0.0	2Suff w/ Lat.	21	234513	conceptually	1.0	0.0	False
235.88	0.0	2Suff PseudoStemNW	24	235880	figically	0.0	1.0	False
237.072	0.0	2Suff w/o Lat.	22	237072	distinctively	1.0	0.0	False
238.489	0.0	1Suff w/o Lat.	12	238489	notify	1.0	0.0	False
239.773	0.0	0Suff NW	4	239773	miccess	0.0	1.0	False
240.923	0.0	2Suff w/o Lat.	22	240923	isolationist	1.0		False
243.315	0.0	0Suff NW	4	243315	arx	0.0	0.0	True
244.482	0.0	2Suff RealStemNW	25	244482	notural	0.0	1.0	False
245.666	0.0	0Suff NW	4	245666	peece	0.0	1.0	False
246.866	0.0	0Suff w/o Lat.	2	246866	triumph	1.0	0.0	False
247.883	0.0	0Suff NW	4	247883	mistile	0.0	1.0	False
248.942	0.0	2Suff RealStemNW	25	248942	relateness	0.0	0.0	True
251.051	0.0	0Suff NW	4	251051	ute	0.0	1.0	False
252.101	0.0	2Suff PseudoStemNW	24	252101	concolerably	0.0	1.0	False
253.418	0.0	0Suff w/o Lat.	2	253418	decor	1.0	0.0	False
254.502	0.0	1Suff RealStemNW	15	254502	competitful	0.0	1.0	False
256.086	0.0	2Suff PseudoStemNW	24	256086	steadthily	0.0	1.0	False
257.528	0.0	0Suff w/o Lat.	2	257528	success	1.0	0.0	False
259.329	0.0	0Suff NW	4	259329	essoils	0.0	1.0	False
260.687	0.0	1Suff RealStemNW	15	260687	forgetive	0.0	0.0	True
262.096	0.0	1Suff RealStemNW	15	262096	conceptuic	0.0	1.0	False
263.538	0.0	2Suff w/o Lat.	22	263538	timeliness	1.0	0.0	False
264.605	0.0	0Suff w/ Lat.	1	264605	extend	1.0	0.0	False
265.664	0.0	1Suff PseudoStemNW	14	265664	gulbsian	0.0	1.0	False
266.731	0.0	0Suff NW	4	266731	atrie	0.0	1.0	False
267.94	0.0	1Suff w/o Lat.	12	267940	original	1.0	0.0	False
268.998	0.0	2Suff PseudoStemNW	24	268998	eetwardly	0.0	1.0	False
270.115	0.0	1Suff RealStemNW	15	270115	sterilist	0.0	1.0	False
271.857	0.0	0Suff NW	4	271857	analk	0.0	1.0	False
273.049	0.0	1Suff PseudoStemNW	14	273049	diruction	0.0	1.0	False
274.2	0.0	2Suff w/o Lat.	22	274200	marginally	1.0	0.0	False
275.392	0.0	2Suff w/o Lat.	22	275392	originally	1.0	0.0	False
276.442	0.0	0Suff NW	4	276442	appigent	0.0	1.0	False
277.459	0.0	1Suff w/o Lat.	12	277459	marketable	1.0	0.0	False
278.551	0.0	2Suff w/o Lat.	22	278551	poetical	1.0	0.0	False
279.735	0.0	1Suff w/ Lat.	11	279735	mistaken	1.0	0.0	False
280.735	0.0	1Suff w/o Lat.	12	280735	gleeful	1.0	0.0	False
282.136	0.0	0Suff w/o Lat.	2	282136	relate	1.0	0.0	False
283.128	0.0	2Suff w/o Lat.	22	283128	rhythmically	1.0	0.0	False
284.42	0.0	0Suff NW	4	284420	avold	0.0	1.0	False
286.379	0.0	2Suff w/o Lat.	22	286379	financially	1.0	0.0	False
288.062	0.0	2Suff PseudoStemNW	24	288062	detismsfully	0.0	1.0	False
289.288	0.0	1Suff w/o Lat.	12	289288	mythical	1.0	0.0	False
290.246	0.0	0Suff w/o Lat.	2	290246	agree	1.0	0.0	False
291.872	0.0	1Suff PseudoStemNW	14	291872	grameful	0.0	1.0	False
293.189	0.0	2Suff PseudoStemNW	24	293189	artlitackural	0.0	1.0	False
294.314	0.0	2Suff RealStemNW	25	294314	glorliness	0.0	1.0	False
295.406	0.0	1Suff w/o Lat.	12	295406	definite	1.0	0.0	False
296.565	0.0	1Suff w/o Lat.	12	296565	functional	1.0	0.0	False
297.582	0.0	0Suff w/o Lat.	2	297582	architect	1.0	0.0	False
298.632	0.0	0Suff w/o Lat.	2	298632	ceremony	1.0	0.0	False
299.591	0.0	2Suff w/o Lat.	22	299591	developmental	1.0	0.0	False
300.541	0.0	2Suff PseudoStemNW	24	300541	awditional	0.0	1.0	False
301.583	0.0	2Suff RealStemNW	25	301583	editerize	0.0	1.0	False
302.75	0.0	1Suff RealStemNW	15	302750	financeic	0.0	1.0	False
303.726	0.0	1Suff PseudoStemNW	14	303726	steadthy	0.0	1.0	False
305.093	0.0	0Suff w/o Lat.	2	305093	logic	1.0	0.0	False
306.051	0.0	1Suff RealStemNW	15	306051	architectian	0.0	1.0	False
307.185	0.0	2Suff PseudoStemNW	24	307185	hythically	0.0	1.0	False
308.452	0.0	2Suff Composite	23	308452	corporation	1.0	1.0	True
309.394	0.0	1Suff w/o Lat.	12	309394	marginal	1.0	0.0	False
310.786	0.0	2Suff RealStemNW	25	310786	cheerability	0.0	1.0	False
312.011	0.0	0Suff NW	4	312011	mowth	0.0	1.0	False
313.053	0.0	2Suff RealStemNW	25	313053	glorifilessly	0.0	0.0	True
314.229	0.0	2Suff w/o Lat.	22	314229	competitively	1.0	0.0	False
315.538	0.0	2Suff PseudoStemNW	24	315538	ewsibally	0.0	1.0	False
316.58	0.0	2Suff PseudoStemNW	24	316580	vefation	0.0	1.0	False
317.913	0.0	2Suff w/o Lat.	22	317913	speedily	1.0	0.0	False
319.272	0.0	1Suff RealStemNW	15	319272	persistify	0.0	1.0	False
321.048	0.0	1Suff w/ Lat.	11	321048	subjective	1.0	0.0	False
322.14	0.0	2Suff w/o Lat.	22	322140	magnetically	1.0	0.0	False
323.648	0.0	2Suff w/o Lat.	22	323648	familiarity	1.0	0.0	False
324.599	0.0	0Suff w/o Lat.	2	324599	educate	1.0	0.0	False
325.532	0.0	0Suff w/o Lat.	2	325532	friend	1.0	0.0	False
326.491	0.0	2Suff RealStemNW	25	326491	deadionist	0.0	0.0	True
327.491	0.0	2Suff RealStemNW	25	327491	harmiously	0.0	1.0	False
329.192	0.0	2Suff RealStemNW	25	329192	decisishness	0.0	1.0	False
330.876	0.0	1Suff w/o Lat.	12	330876	frightful	1.0	0.0	False
332.143	0.0	2Suff w/o Lat.	22	332143	governmental	1.0	0.0	False
333.718	0.0	0Suff w/o Lat.	2	333718	order	1.0	0.0	False
334.818	0.0	2Suff w/o Lat.	22	334818	decorative	1.0	0.0	False
335.852	0.0	0Suff NW	4	335852	artlitack	0.0	1.0	False
337.453	0.0	2Suff w/o Lat.	22	337453	gleefully	1.0	1.0	True
338.661	0.0	0Suff NW	4	338661	chier	0.0	1.0	False
340.253	0.0	1Suff PseudoStemNW	14	340253	mowthure	0.0	1.0	False
341.27	0.0	0Suff w/o Lat.	2	341270	consider	1.0	0.0	False
342.296	0.0	2Suff w/o Lat.	22	342296	guardianship	1.0	0.0	False
343.596	0.0	1Suff RealStemNW	15	343596	directar	0.0	1.0	False
345.697	0.0	1Suff PseudoStemNW	14	345697	pavediadist	0.0	1.0	False
346.73	0.0	2Suff w/o Lat.	22	346730	directional	1.0	0.0	False
347.923	0.0	2Suff RealStemNW	25	347923	friendionist	0.0	1.0	False
349.74	0.0	1Suff w/o Lat.	12	349740	agreeable	1.0	0.0	False
350.832	0.0	2Suff RealStemNW	25	350832	directality	0.0	1.0	False
352.841	0.0	2Suff Composite	23	352841	sterilization	1.0	1.0	True
353.908	0.0	2Suff w/o Lat.	22	353908	triumphantly	1.0	0.0	False
355.241	0.0	0Suff w/o Lat.	2	355241	sleep	1.0	0.0	False
356.133	0.0	1Suff w/o Lat.	12	356133	seasonal	1.0	0.0	False
363.227	0.0	2Suff Composite	23	363227	stratification	1.0	0.0	False
365.128	0.0	0Suff NW	4	365128	chird	0.0	1.0	False
366.312	0.0	2Suff RealStemNW	25	366312	manionist	0.0	1.0	False
368.12	0.0	2Suff PseudoStemNW	24	368120	devesugmental	0.0	1.0	False
369.763	0.0	1Suff RealStemNW	15	369763	eany	0.0	1.0	False
370.78	0.0	1Suff w/ Lat.	11	370780	extensive	1.0	0.0	False
371.738	0.0	2Suff Composite	23	371738	allegation	1.0	0.0	False
372.772	0.0	1Suff PseudoStemNW	14	372772	chansotion	0.0	1.0	False
374.089	0.0	2Suff w/o Lat.	22	374089	relationship	1.0	0.0	False
375.098	0.0	1Suff PseudoStemNW	14	375098	rumical	0.0	1.0	False
376.248	0.0	2Suff w/o Lat.	22	376248	thickener	1.0	0.0	False
377.265	0.0	0Suff w/o Lat.	2	377265	direct	1.0	0.0	False
378.799	0.0	2Suff w/o Lat.	22	378799	mobilization	1.0	0.0	False
379.832	0.0	2Suff PseudoStemNW	24	379832	stumiality	0.0	1.0	False
380.924	0.0	0Suff NW	4	380924	tuty	0.0	1.0	False
381.966	0.0	2Suff w/o Lat.	22	381966	ceremonially	1.0	0.0	False
383.784	0.0	2Suff w/o Lat.	22	383784	designation	1.0	0.0	False
384.992	0.0	1Suff RealStemNW	15	384992	extensful	0.0	0.0	True
385.926	0.0	0Suff w/o Lat.	2	385926	rest	1.0	0.0	False
386.96	0.0	0Suff NW	4	386960	imoat	0.0	0.0	True
388.552	0.0	1Suff w/o Lat.	12	388552	addition	1.0	0.0	False
389.427	0.0	2Suff RealStemNW	25	389427	fatical	0.0	1.0	False
390.802	0.0	0Suff NW	4	390802	subplence	0.0	1.0	False
392.753	0.0	0Suff NW	4	392753	wead	0.0	0.0	True
394.078	0.0	0Suff NW	4	394078	wate	0.0	1.0	False
395.537	0.0	2Suff RealStemNW	25	395537	notifilessly	0.0	0.0	True
397.454	0.0	1Suff RealStemNW	15	397454	peaceive	0.0	0.0	True
398.796	0.0	2Suff PseudoStemNW	24	398796	stumialize	0.0	1.0	False
400.43	0.0	2Suff PseudoStemNW	24	400430	urhanization	0.0	0.0	True
402.198	0.0	2Suff RealStemNW	25	402198	predictator	0.0	0.0	True
404.273	0.0	0Suff NW	4	404273	rhylph	0.0		False
406.682	0.0	1Suff w/o Lat.	12	406682	validate	1.0	0.0	False
408.358	0.0	1Suff PseudoStemNW	14	408358	hythical	0.0	0.0	True
409.783	0.0	1Suff w/o Lat.	12	409783	commentate	1.0	0.0	False
411.009	0.0	0Suff w/o Lat.	2	411009	essence	1.0	0.0	False
412.034	0.0	2Suff w/o Lat.	22	412034	immunization	1.0	0.0	False
413.109	0.0	2Suff PseudoStemNW	24	413109	analkability	0.0	1.0	False
414.41	0.0	2Suff RealStemNW	25	414410	guardifiance	0.0	0.0	True
415.585	0.0	0Suff NW	4	415585	chotintic	0.0	0.0	True
416.477	0.0	2Suff PseudoStemNW	24	416477	diructorship	0.0	0.0	True
418.127	0.0	2Suff PseudoStemNW	24	418127	arfulness	0.0	1.0	False
419.52	0.0	2Suff w/o Lat.	22	419520	moisturize	1.0	0.0	False
420.487	0.0	2Suff PseudoStemNW	24	420487	cunerogially	0.0	0.0	True
421.904	0.0	1Suff PseudoStemNW	14	421904	fleepy	0.0	0.0	True
422.737	0.0	1Suff PseudoStemNW	14	422737	tipely	0.0	1.0	False
424.638	0.0	1Suff RealStemNW	15	424638	considerion	0.0	0.0	True
425.571	0.0	1Suff w/o Lat.	12	425571	heroic	1.0	0.0	False
427.597	0.0	2Suff w/o Lat.	22	427597	reasonably	1.0	0.0	False
428.997	0.0	1Suff PseudoStemNW	14	428997	eseretion	0.0	1.0	False
430.356	0.0	2Suff PseudoStemNW	24	430356	potarity	0.0	1.0	False
431.782	0.0	2Suff PseudoStemNW	24	431782	deabonably	0.0	1.0	False
433.215	0.0	0Suff NW	4	433215	manhet	0.0	0.0	True
434.574	0.0	1Suff PseudoStemNW	14	434574	meabonal	0.0	1.0	False
435.866	0.0	0Suff NW	4	435866	degor	0.0	1.0	False
437.033	0.0	1Suff PseudoStemNW	14	437033	dehonite	0.0	1.0	False
438.034	0.0	1Suff w/o Lat.	12	438034	friendly	1.0	0.0	False
439.126	0.0	2Suff w/o Lat.	22	439126	fatally	1.0	0.0	False
440.518	0.0	0Suff w/o Lat.	2	440518	persuade	1.0	0.0	False
441.543	0.0	0Suff w/ Lat.	1	441543	impress	1.0	0.0	False
443.435	0.0	1Suff w/ Lat.	11	443435	predictable	1.0	0.0	False
444.469	0.0	1Suff w/o Lat.	12	444469	harmless	1.0	0.0	False
445.436	0.0	2Suff PseudoStemNW	24	445436	instrovtional	0.0	0.0	True
446.511	0.0	2Suff w/o Lat.	22	446511	accidentally	1.0	0.0	False
447.436	0.0	2Suff RealStemNW	25	447436	poetally	0.0		False
449.829	0.0	2Suff RealStemNW	25	449829	awively	0.0		False
452.238	0.0	0Suff NW	4	452238	distawks	0.0		False
454.63	0.0	2Suff PseudoStemNW	24	454630	concuchualize	0.0		False
457.039	0.0	0Suff w/o Lat.	2	457039	glee	1.0		False
459.432	0.0	0Suff NW	4	459432	snight	0.0	0.0	True
460.549	0.0	2Suff w/o Lat.	22	460549	intensively	1.0	0.0	False
461.733	0.0	2Suff w/o Lat.	22	461733	easily	1.0	0.0	False
462.891	0.0	0Suff NW	4	462891	goult	0.0	1.0	False
464.15	0.0	2Suff w/o Lat.	22	464150	directorship	1.0	0.0	False
465.3	0.0	1Suff w/o Lat.	12	465300	restless	1.0	0.0	False
466.359	0.0	2Suff w/o Lat.	22	466359	definitive	1.0	0.0	False
467.376	0.0	0Suff NW	4	467376	meabon	0.0	1.0	False
468.618	0.0	2Suff Composite	23	468618	revitalization	1.0	0.0	False
469.835	0.0	0Suff w/ Lat.	1	469835	concept	1.0	0.0	False
470.785	0.0	0Suff w/o Lat.	2	470785	distinct	1.0	0.0	False
471.727	0.0	2Suff w/o Lat.	22	471727	globally	1.0	0.0	False
472.711	0.0	2Suff PseudoStemNW	24	472711	prebitably	0.0	1.0	False
473.945	0.0	2Suff RealStemNW	25	473945	quotfully	0.0	1.0	False
475.178	0.0	2Suff PseudoStemNW	24	475178	tipeliness	0.0	1.0	False
476.279	0.0	2Suff PseudoStemNW	24	476279	gramiously	0.0	1.0	False
477.271	0.0	1Suff PseudoStemNW	14	477271	ewsibal	0.0	1.0	False
478.179	0.0	1Suff RealStemNW	15	478179	persuasful	0.0	1.0	False
479.355	0.0	2Suff w/o Lat.	22	479355	leadership	1.0	0.0	False
480.555	0.0	2Suff RealStemNW	25	480555	restiousness	0.0	1.0	False
481.789	0.0	2Suff w/o Lat.	22	481789	childishly	1.0	0.0	False
482.856	0.0	1Suff PseudoStemNW	14	482856	girernment	0.0	1.0	False
484.306	0.0	1Suff w/o Lat.	12	484306	poetic	1.0	0.0	False
485.206	0.0	1Suff RealStemNW	15	485206	developward	0.0	1.0	False
486.323	0.0	0Suff w/o Lat.	2	486323	soft	1.0	0.0	False
487.174	0.0	2Suff PseudoStemNW	24	487174	carbisalistic	0.0	1.0	False
488.207	0.0	1Suff RealStemNW	15	488207	designion	0.0	0.0	True
489.358	0.0	0Suff NW	4	489358	prodfess	0.0	1.0	False
490.491	0.0	0Suff w/o Lat.	2	490491	adapt	1.0	0.0	False
491.458	0.0	2Suff RealStemNW	25	491458	sleepery	0.0	1.0	False
492.8	0.0	2Suff PseudoStemNW	24	492800	allidation	0.0	1.0	False
494.034	0.0	2Suff w/o Lat.	22	494034	uselessness	1.0	0.0	False
495.343	0.0	2Suff w/o Lat.	22	495343	ritualistic	1.0	0.0	False
496.402	0.0	0Suff w/o Lat.	2	496402	finance	1.0	0.0	False
497.369	0.0	2Suff PseudoStemNW	24	497369	orifadally	0.0	1.0	False
498.394	0.0	1Suff w/o Lat.	12	498394	accidental	1.0	0.0	False
499.244	0.0	0Suff w/o Lat.	2	499244	real	1.0	0.0	False
500.144	0.0	1Suff w/o Lat.	12	500144	fasten	1.0	0.0	False
501.178	0.0	2Suff w/o Lat.	22	501178	restlessness	1.0	0.0	False
502.237	0.0	1Suff w/o Lat.	12	502237	confession	1.0	0.0	False
503.512	0.0	0Suff w/o Lat.	2	503512	edit	1.0	0.0	False
504.504	0.0	2Suff w/o Lat.	22	504504	fatalism	1.0	0.0	False
505.546	0.0	0Suff w/o Lat.	2	505546	poet	1.0	0.0	False
506.53	0.0	1Suff w/o Lat.	12	506530	ethical	1.0	0.0	False
507.447	0.0	2Suff w/o Lat.	22	507447	familiarize	1.0	0.0	False
508.347	0.0	2Suff RealStemNW	25	508347	commutfully	0.0	0.0	True
509.206	0.0	1Suff w/o Lat.	12	509206	delightful	1.0	0.0	False
510.131	0.0	2Suff w/o Lat.	22	510131	considerably	1.0	0.0	False
510.973	0.0	2Suff PseudoStemNW	24	510973	coppentator	0.0	1.0	False
512.657	0.0	0Suff w/o Lat.	2	512657	regret	1.0	0.0	False
514.049	0.0	2Suff PseudoStemNW	24	514049	peadership	0.0	1.0	False
521.326	0.0	0Suff NW	4	521326	snought	0.0	0.0	True
523.168	0.0	0Suff w/ Lat.	1	523168	predict	1.0	0.0	False
524.11	0.0	2Suff PseudoStemNW	24	524110	adstification	0.0	1.0	False
525.26	0.0	2Suff PseudoStemNW	24	525260	rerational	0.0	1.0	False
526.427	0.0	1Suff w/o Lat.	12	526427	relation	1.0	0.0	False
527.461	0.0	2Suff Composite	23	527461	militarization	1.0	0.0	False
528.486	0.0	2Suff RealStemNW	25	528486	fatantly	0.0	1.0	False
529.662	0.0	0Suff NW	4	529662	affaid	0.0	1.0	False
530.804	0.0	2Suff w/o Lat.	22	530804	nervously	1.0	0.0	False
531.846	0.0	0Suff w/o Lat.	2	531846	develop	1.0	0.0	False
532.796	0.0	1Suff w/o Lat.	12	532796	gracious	1.0	0.0	False
533.746	0.0	0Suff NW	4	533746	attossin	0.0	1.0	False
534.788	0.0	0Suff NW	4	534788	eserete	0.0	1.0	False
535.955	0.0	1Suff w/o Lat.	12	535955	notable	1.0	0.0	False
536.922	0.0	1Suff w/o Lat.	12	536922	triumphant	1.0	0.0	False
538.465	0.0	0Suff NW	4	538465	affall	0.0	1.0	False
539.798	0.0	2Suff RealStemNW	25	539798	fasticly	0.0	0.0	True
542.057	0.0	0Suff w/o Lat.	2	542057	exhaust	1.0	0.0	False
542.974	0.0	1Suff RealStemNW	15	542974	protectate	0.0	1.0	False
544.283	0.0	0Suff NW	4	544283	sest	0.0	1.0	False
545.4	0.0	2Suff Composite	23	545400	pasteurization	1.0	0.0	False
547.234	0.0	2Suff RealStemNW	25	547234	assassinfully	0.0	0.0	True
549.301	0.0	2Suff PseudoStemNW	24	549301	mistilenly	0.0		False
551.702	0.0	0Suff w/o Lat.	2	551702	substance	1.0	0.0	False
552.586	0.0	2Suff RealStemNW	25	552586	marketfulness	0.0	0.0	True
553.694	0.0	1Suff w/o Lat.	12	553694	polar	1.0	0.0	False
554.569	0.0	1Suff PseudoStemNW	14	554569	thacken	0.0	1.0	False
555.62	0.0	0Suff NW	4	555620	preguct	0.0	1.0	False
556.695	0.0	0Suff w/o Lat.	2	556695	soul	1.0	0.0	False
557.629	0.0	2Suff PseudoStemNW	24	557629	esdybitionism	0.0	1.0	False
559.063	0.0	2Suff PseudoStemNW	24	559063	denboderation	0.0	1.0	False
560.054	0.0	0Suff NW	4	560054	dehone	0.0	1.0	False
561.071	0.0	0Suff w/ Lat.	1	561071	exhibit	1.0	0.0	False
562.08	0.0	2Suff RealStemNW	25	562080	painively	0.0	1.0	False
563.306	0.0	2Suff Composite	23	563306	canonical	1.0	1.0	True
564.589	0.0	1Suff w/o Lat.	12	564589	basic	1.0	0.0	False
565.523	0.0	2Suff w/o Lat.	22	565523	cheerfully	1.0	0.0	False
566.531	0.0	0Suff NW	4	566531	figic	0.0	1.0	False
567.59	0.0	1Suff w/o Lat.	12	567590	fatal	1.0	0.0	False
568.474	0.0	1Suff PseudoStemNW	14	568474	sorken	0.0	1.0	False
569.532	0.0	2Suff RealStemNW	25	569532	familierage	0.0	1.0	False
571.658	0.0	0Suff w/o Lat.	2	571658	differ	1.0	0.0	False
572.767	0.0	1Suff w/o Lat.	12	572767	decorate	1.0	0.0	False
573.825	0.0	2Suff w/o Lat.	22	573825	decisively	1.0	0.0	False
574.784	0.0	2Suff PseudoStemNW	24	574784	vimidation	0.0	1.0	False
576.026	0.0	2Suff RealStemNW	25	576026	immunability	0.0	0.0	True
577.085	0.0	2Suff w/ Lat.	21	577085	instructional	1.0	0.0	False
578.185	0.0	2Suff w/o Lat.	22	578185	thoughtlessly	1.0	0.0	False
579.085	0.0	2Suff PseudoStemNW	24	579085	thackener	0.0	0.0	True
580.019	0.0	0Suff w/ Lat.	1	580019	instruct	1.0	0.0	False
580.911	0.0	2Suff PseudoStemNW	24	580911	watefulness	0.0	0.0	True
581.911	0.0	0Suff w/o Lat.	2	581911	statistic	1.0	0.0	False
583.162	0.0	1Suff PseudoStemNW	14	583162	coppentate	0.0	1.0	False
584.395	0.0	0Suff NW	4	584395	instrove	0.0	1.0	False
585.529	0.0	2Suff w/ Lat.	21	585529	mistakenly	1.0	0.0	False
586.796	0.0	2Suff PseudoStemNW	24	586796	stoteldionist	0.0	1.0	False
588.021	0.0	1Suff w/o Lat.	12	588021	painless	1.0	0.0	False
589.297	0.0	0Suff w/o Lat.	2	589297	thank	1.0	0.0	False
590.205	0.0	0Suff w/o Lat.	2	590205	valid	1.0	0.0	False
591.389	0.0	1Suff w/o Lat.	12	591389	idealist	1.0	0.0	False
592.314	0.0	2Suff RealStemNW	25	592314	provocatfully	0.0	1.0	False
594.115	0.0	1Suff w/o Lat.	12	594115	direction	1.0	0.0	False
595.14	0.0	2Suff w/o Lat.	22	595140	materialistic	1.0	0.0	False
596.207	0.0	2Suff PseudoStemNW	24	596207	pafferentiate	0.0	1.0	False
597.391	0.0	1Suff w/o Lat.	12	597391	useless	1.0	0.0	False
598.325	0.0	2Suff w/o Lat.	22	598325	leaderless	1.0	0.0	False
599.225	0.0	2Suff w/o Lat.	22	599225	assassination	1.0	0.0	False
600.334	0.0	2Suff w/o Lat.	22	600334	statistically	1.0	0.0	False
601.534	0.0	2Suff w/o Lat.	22	601534	thankfulness	1.0	0.0	False
602.618	0.0	0Suff w/o Lat.	2	602618	isolate	1.0	0.0	False
603.618	0.0	2Suff PseudoStemNW	24	603618	pipplification	0.0	1.0	False
604.818	0.0	0Suff NW	4	604818	chansot	0.0	1.0	False
605.827	0.0	2Suff w/o Lat.	22	605827	mythically	1.0	0.0	False
606.944	0.0	0Suff NW	4	606944	detisms	0.0	1.0	False
608.211	0.0	1Suff RealStemNW	15	608211	ritualify	0.0	1.0	False
609.962	0.0	2Suff w/o Lat.	22	609962	faithfully	1.0	0.0	False
611.079	0.0	2Suff w/o Lat.	22	611079	sleepily	1.0	0.0	False
612.121	0.0	1Suff PseudoStemNW	14	612121	chotintical	0.0	1.0	False
613.188	0.0	0Suff w/o Lat.	2	613188	thick	1.0	0.0	False
614.305	0.0	2Suff w/o Lat.	22	614305	notably	1.0	0.0	False
615.413	0.0	1Suff w/o Lat.	12	615413	reasonable	1.0	0.0	False
616.48	0.0	0Suff NW	4	616480	helily	0.0	1.0	False
617.664	0.0	2Suff w/o Lat.	22	617664	trivialize	1.0	0.0	False
619.181	0.0	1Suff PseudoStemNW	14	619181	sushective	0.0	1.0	False
620.248	0.0	2Suff PseudoStemNW	24	620248	desalkation	0.0	1.0	False
621.432	0.0	2Suff w/o Lat.	22	621432	differentiate	1.0	0.0	False
622.424	0.0	2Suff w/ Lat.	21	622424	extensively	1.0	0.0	False
623.441	0.0	2Suff w/o Lat.	22	623441	deadliness	1.0	0.0	False
624.774	0.0	1Suff RealStemNW	15	624774	differious	0.0	1.0	False
626.175	0.0	2Suff PseudoStemNW	24	626175	ictressionism	0.0	1.0	False
627.909	0.0	1Suff PseudoStemNW	14	627909	vimidate	0.0	1.0	False
629.017	0.0	1Suff w/o Lat.	12	629017	exhaustive	1.0	0.0	False
630.201	0.0	2Suff w/ Lat.	21	630201	progressively	1.0	0.0	False
631.602	0.0	2Suff PseudoStemNW	24	631602	rerativity	0.0	1.0	False
632.835	0.0	1Suff w/o Lat.	12	632835	hopeful	1.0	0.0	False
633.836	0.0	0Suff NW	4	633836	desalk	0.0	1.0	False
634.994	0.0	2Suff RealStemNW	25	634994	idealional	0.0	1.0	False
635.995	0.0	2Suff w/o Lat.	22	635995	dramatically	1.0	0.0	False
636.953	0.0	1Suff w/o Lat.	12	636953	stealthy	1.0	1.0	True
638.079	0.0	1Suff PseudoStemNW	14	638079	restittable	0.0	0.0	True
639.012	0.0	1Suff w/o Lat.	12	639012	adaptable	1.0	0.0	False
640.087	0.0	2Suff PseudoStemNW	24	640087	falumfilly	0.0	1.0	False
641.263	0.0	0Suff w/ Lat.	1	641263	affect	1.0	0.0	False
642.23	0.0	0Suff w/o Lat.	2	642230	profit	1.0	0.0	False
643.097	0.0	1Suff w/o Lat.	12	643097	isolation	1.0	0.0	False
643.972	0.0	0Suff NW	4	643972	musual	0.0	1.0	False
645.072	0.0	2Suff RealStemNW	25	645072	relatifiable	0.0	1.0	False
646.273	0.0	2Suff w/o Lat.	22	646273	relational	1.0	0.0	False
647.24	0.0	2Suff PseudoStemNW	24	647240	utefully	0.0	1.0	False
648.34	0.0	1Suff RealStemNW	15	648340	exhibitate	0.0	0.0	True
649.357	0.0	1Suff RealStemNW	15	649357	isolatate	0.0	0.0	True
650.582	0.0	0Suff NW	4	650582	deabon	0.0	0.0	True
651.633	0.0	2Suff PseudoStemNW	24	651633	chirdishly	0.0	1.0	False
652.983	0.0	2Suff w/o Lat.	22	652983	orderliness	1.0	1.0	True
654.35	0.0	0Suff w/o Lat.	2	654350	drama	1.0	0.0	False
655.342	0.0	0Suff NW	4	655342	rerard	0.0	1.0	False
656.501	0.0	0Suff NW	4	656501	reut	0.0	1.0	False
657.426	0.0	1Suff PseudoStemNW	14	657426	awdition	0.0	1.0	False
658.393	0.0	2Suff w/o Lat.	22	658393	idealistic	1.0	0.0	False
662.586	0.0	0Suff w/o Lat.	2	662586	use	1.0	0.0	False
663.811	0.0	0Suff w/o Lat.	2	663811	base	1.0	0.0	False
665.979	0.0	2Suff Composite	23	665979	organization	1.0	0.0	False
666.946	0.0	0Suff NW	4	666946	ewsib	0.0	1.0	False
667.896	0.0	1Suff PseudoStemNW	14	667896	cunerogial	0.0	1.0	False
668.888	0.0	1Suff w/o Lat.	12	668888	wakeful	1.0	0.0	False
669.813	0.0	1Suff w/o Lat.	12	669813	partial	1.0	0.0	False
670.905	0.0	2Suff w/o Lat.	22	670905	exhaustively	1.0	0.0	False
671.872	0.0	2Suff w/o Lat.	22	671872	seasonally	1.0	0.0	False
672.939	0.0	0Suff NW	4	672939	perburve	0.0	1.0	False
674.131	0.0	0Suff NW	4	674131	nerbs	0.0	0.0	True
675.048	0.0	2Suff w/o Lat.	22	675048	editorship	1.0	0.0	False
676.499	0.0	2Suff PseudoStemNW	24	676499	squasification	0.0	1.0	False
678.091	0.0	2Suff w/o Lat.	22	678091	thoughtfully	1.0	0.0	False
679.033	0.0	1Suff w/o Lat.	12	679033	believable	1.0	0.0	False
679.991	0.0	0Suff w/o Lat.	2	679991	sterile	1.0	0.0	False
681.075	0.0	0Suff NW	4	681075	fale	0.0	1.0	False
682.426	0.0	2Suff w/o Lat.	22	682426	peacefully	1.0	0.0	False
683.376	0.0	2Suff w/o Lat.	22	683376	worthlessness	1.0	0.0	False
684.434	0.0	1Suff PseudoStemNW	14	684434	wrotious	0.0	1.0	False
685.593	0.0	2Suff w/o Lat.	22	685593	gracefully	1.0	0.0	False
686.568	0.0	2Suff w/o Lat.	22	686568	forgetfulness	1.0	0.0	False
687.569	0.0	1Suff PseudoStemNW	14	687569	affaidative	0.0	1.0	False
688.827	0.0	1Suff RealStemNW	15	688827	poetal	0.0	1.0	False
690.278	0.0	0Suff NW	4	690278	uspasion	0.0	1.0	False
691.228	0.0	1Suff w/o Lat.	12	691228	speedy	1.0	0.0	False
692.212	0.0	1Suff PseudoStemNW	14	692212	farsen	0.0	1.0	False
693.129	0.0	0Suff w/o Lat.	2	693129	comment	1.0	0.0	False
694.171	0.0	2Suff PseudoStemNW	24	694171	chotintically	0.0	1.0	False
695.555	0.0	2Suff w/o Lat.	22	695555	ethically	1.0	0.0	False
696.547	0.0	0Suff NW	4	696547	hyth	0.0	1.0	False
697.664	0.0	1Suff w/o Lat.	12	697664	faithful	1.0	0.0	False
698.597	0.0	2Suff RealStemNW	25	698597	polioner	0.0	1.0	False
700.073	0.0	1Suff PseudoStemNW	14	700073	snoughtless	0.0	0.0	True
701.181	0.0	2Suff w/o Lat.	22	701181	musically	1.0	0.0	False
702.348	0.0	2Suff PseudoStemNW	24	702348	dehonitive	0.0	1.0	False
703.657	0.0	2Suff w/o Lat.	22	703657	aimlessly	1.0	0.0	False
704.557	0.0	2Suff PseudoStemNW	24	704557	fleedily	0.0	0.0	True
705.824	0.0	0Suff w/o Lat.	2	705824	transit	1.0	0.0	False
706.966	0.0	0Suff NW	4	706966	cunerogy	0.0	1.0	False
708.133	0.0	1Suff RealStemNW	15	708133	agreeless	0.0	0.0	True
709.05	0.0	1Suff RealStemNW	15	709050	soulive	0.0	0.0	True
710.159	0.0	1Suff RealStemNW	15	710159	confessate	0.0	1.0	False
711.659	0.0	2Suff PseudoStemNW	24	711659	eltensively	0.0	1.0	False
713.66	0.0	0Suff w/o Lat.	2	713660	confess	1.0	0.0	False
714.719	0.0	0Suff w/o Lat.	2	714719	ease	1.0	0.0	False
715.694	0.0	0Suff NW	4	715694	eshaums	0.0	1.0	False
716.761	0.0	2Suff RealStemNW	25	716761	affectorship	0.0	0.0	True
717.711	0.0	2Suff Composite	23	717711	affectation	1.0	0.0	False
718.92	0.0	2Suff w/o Lat.	22	718920	differential	1.0	0.0	False
719.995	0.0	1Suff PseudoStemNW	14	719995	glibal	0.0	1.0	False
721.788	0.0	2Suff PseudoStemNW	24	721788	worchlessness	0.0	0.0	True
722.955	0.0	1Suff RealStemNW	15	722955	marketless	0.0	0.0	True
724.23	0.0	0Suff NW	4	724230	worch	0.0	1.0	False
725.497	0.0	0Suff w/o Lat.	2	725497	out	1.0	0.0	False
726.456	0.0	1Suff PseudoStemNW	14	726456	orifadal	0.0	1.0	False
728.798	0.0	1Suff PseudoStemNW	14	728798	prodfessive	0.0	1.0	False
729.982	0.0	1Suff PseudoStemNW	14	729982	etilor	0.0	1.0	False
730.982	0.0	2Suff w/o Lat.	22	730982	occasionally	1.0	0.0	False
731.999	0.0	1Suff w/ Lat.	11	731999	persistent	1.0	0.0	False
733.249	0.0	2Suff w/o Lat.	22	733249	childishness	1.0	0.0	False
734.291	0.0	1Suff PseudoStemNW	14	734291	halkless	0.0	1.0	False
736.0	0.0	2Suff RealStemNW	25	736000	peaceively	0.0	0.0	True
737.059	0.0	0Suff NW	4	737059	finiles	0.0	1.0	False
738.418	0.0	0Suff NW	4	738418	provame	0.0	1.0	False
739.71	0.0	0Suff NW	4	739710	eet	0.0	1.0	False
740.76	0.0	2Suff Composite	23	740760	satirical	1.0	0.0	False
742.077	0.0	2Suff RealStemNW	25	742077	ritualional	0.0	0.0	True
743.094	0.0	2Suff w/o Lat.	22	743094	architectural	1.0	0.0	False
744.17	0.0	2Suff RealStemNW	25	744170	ailistic	0.0	0.0	True
745.028	0.0	2Suff w/o Lat.	22	745028	painlessly	1.0	0.0	False
745.945	0.0	2Suff w/o Lat.	22	745945	hopefully	1.0	0.0	False
746.837	0.0	1Suff w/o Lat.	12	746837	ceremonial	1.0	0.0	False
747.929	0.0	0Suff NW	4	747929	diruce	0.0	1.0	False
749.063	0.0	1Suff w/o Lat.	12	749063	timely	1.0	0.0	False
749.996	0.0	0Suff w/o Lat.	2	749996	family	1.0	0.0	False
750.938	0.0	1Suff PseudoStemNW	14	750938	mosimize	0.0	1.0	False
752.114	0.0	1Suff PseudoStemNW	14	752114	distawksive	0.0	1.0	False
753.189	0.0	0Suff NW	4	753189	urmer	0.0	1.0	False
754.923	0.0	1Suff w/o Lat.	12	754923	successful	1.0	0.0	False
756.332	0.0	1Suff PseudoStemNW	14	756332	aisless	0.0	1.0	False
758.491	0.0	1Suff PseudoStemNW	14	758491	falal	0.0	0.0	True
759.633	0.0	0Suff w/o Lat.	2	759633	guard	1.0	0.0	False
760.541	0.0	0Suff w/o Lat.	2	760541	origin	1.0	0.0	False
761.366	0.0	2Suff w/o Lat.	22	761366	definitely	1.0	0.0	False
762.192	0.0	1Suff w/o Lat.	12	762192	outward	1.0	0.0	False
763.059	0.0	1Suff PseudoStemNW	14	763059	arful	0.0	0.0	True
763.851	0.0	2Suff RealStemNW	25	763851	decisfully	0.0	0.0	True
764.659	0.0	0Suff w/o Lat.	2	764659	moist	1.0	0.0	False
765.559	0.0	0Suff w/o Lat.	2	765559	wake	1.0	0.0	False
767.002	0.0	2Suff PseudoStemNW	24	767002	miccessfully	0.0	1.0	False
768.185	0.0	2Suff w/o Lat.	22	768185	agreeably	1.0	0.0	False
769.002	0.0	0Suff NW	4	769002	fleep	0.0	1.0	False
770.144	0.0	0Suff NW	4	770144	priueur	0.0	1.0	False
771.461	0.0	1Suff w/ Lat.	11	771461	available	1.0	0.0	False
772.445	0.0	2Suff w/o Lat.	22	772445	guiltiness	1.0	0.0	False
773.929	0.0	2Suff PseudoStemNW	24	773929	hodelessness	0.0	1.0	False
775.104	0.0	0Suff NW	4	775104	sushect	0.0	1.0	False
776.546	0.0	0Suff NW	4	776546	eltene	0.0	1.0	False
778.655	0.0	1Suff PseudoStemNW	14	778655	fralatize	0.0	1.0	False
779.722	0.0	2Suff w/o Lat.	22	779722	frightfully	1.0	0.0	False
780.897	0.0	2Suff w/o Lat.	22	780897	isolationism	1.0	1.0	True
782.765	0.0	1Suff w/o Lat.	12	782765	education	1.0	0.0	False
783.765	0.0	0Suff w/ Lat.	1	783765	affirm	1.0	0.0	False
784.69	0.0	1Suff w/o Lat.	12	784690	cheerful	1.0	0.0	False
785.582	0.0	0Suff NW	4	785582	bant	0.0	1.0	False
787.049	0.0	0Suff w/o Lat.	2	787049	immune	1.0	0.0	False
787.975	0.0	1Suff w/o Lat.	12	787975	government	1.0	0.0	False
788.85	0.0	2Suff Composite	23	788850	autistic	1.0	0.0	False
789.867	0.0	1Suff w/ Lat.	11	789867	affection	1.0	0.0	False
790.767	0.0	0Suff w/o Lat.	2	790767	occasion	1.0	0.0	False
791.726	0.0	1Suff PseudoStemNW	14	791726	thiendly	0.0	1.0	False
792.759	0.0	0Suff w/o Lat.	2	792759	stealth	1.0	0.0	False
793.735	0.0	1Suff w/o Lat.	12	793735	guardian	1.0	0.0	False
794.635	0.0	2Suff w/o Lat.	22	794635	considerately	1.0	0.0	False
795.527	0.0	2Suff PseudoStemNW	24	795527	distawksively	0.0	1.0	False
796.711	0.0	0Suff w/o Lat.	2	796711	execute	1.0	0.0	False
797.603	0.0	2Suff w/o Lat.	22	797603	transitional	1.0	0.0	False
798.52	0.0	2Suff w/o Lat.	22	798520	executioner	1.0	0.0	False
802.362	0.0	2Suff w/ Lat.	21	802362	availability	1.0	0.0	False
803.396	0.0	1Suff w/o Lat.	12	803396	editor	1.0	0.0	False
804.321	0.0	1Suff RealStemNW	15	804321	provocatful	0.0	0.0	True
805.322	0.0	1Suff w/ Lat.	11	805322	impression	1.0	0.0	False
806.447	0.0	0Suff NW	4	806447	pipsist	0.0	1.0	False
807.514	0.0	1Suff w/o Lat.	12	807514	thoughtful	1.0	0.0	False
808.414	0.0	0Suff NW	4	808414	concuch	0.0	0.0	True
809.331	0.0	1Suff PseudoStemNW	14	809331	worchless	0.0	0.0	True
810.698	0.0	0Suff NW	4	810698	pasnet	0.0	0.0	True
811.99	0.0	0Suff NW	4	811990	devesug	0.0	1.0	False
813.599	0.0	2Suff w/o Lat.	22	813599	differently	1.0	1.0	True
814.466	0.0	2Suff w/ Lat.	21	814466	exhibitionism	1.0	0.0	False
815.867	0.0	2Suff PseudoStemNW	24	815867	utelessness	0.0	0.0	True
816.775	0.0	0Suff w/o Lat.	2	816775	forget	1.0	0.0	False
817.659	0.0	2Suff w/o Lat.	22	817659	realistic	1.0	0.0	False
818.509	0.0	1Suff w/o Lat.	12	818509	healthy	1.0	0.0	False
819.351	0.0	2Suff Composite	23	819351	commutation	1.0	0.0	False
820.243	0.0	0Suff w/o Lat.	2	820243	protect	1.0	0.0	False
821.043	0.0	1Suff RealStemNW	15	821043	basly	0.0	0.0	True
821.852	0.0	1Suff w/o Lat.	12	821852	moisture	1.0	0.0	False
822.635	0.0	2Suff w/o Lat.	22	822635	regrettably	1.0	0.0	False
823.369	0.0	1Suff RealStemNW	15	823369	manen	0.0		False
825.77	0.0	1Suff w/o Lat.	12	825770	relative	1.0	0.0	False
826.853	0.0	2Suff RealStemNW	25	826853	aimiously	0.0	1.0	False
828.32	0.0	0Suff w/o Lat.	2	828320	accident	1.0	0.0	False
829.321	0.0	0Suff NW	4	829321	gloo	0.0	1.0	False
830.363	0.0	1Suff RealStemNW	15	830363	childory	0.0	1.0	False
831.496	0.0	2Suff PseudoStemNW	24	831496	nerbously	0.0	1.0	False
832.53	0.0	2Suff PseudoStemNW	24	832530	affallation	0.0	1.0	False
833.58	0.0	1Suff w/o Lat.	12	833580	manly	1.0	0.0	False
834.622	0.0	2Suff RealStemNW	25	834622	subjectfully	0.0	0.0	True
835.539	0.0	2Suff PseudoStemNW	24	835539	reratively	0.0	0.0	True
836.456	0.0	1Suff RealStemNW	15	836456	impressate	0.0	1.0	False
837.49	0.0	1Suff w/ Lat.	11	837490	conceptual	1.0	0.0	False
838.374	0.0	1Suff w/ Lat.	11	838374	affirmative	1.0	0.0	False
839.457	0.0	0Suff NW	4	839457	faulm	0.0	1.0	False
840.558	0.0	2Suff RealStemNW	25	840558	easery	0.0	1.0	False
842.45	0.0	2Suff w/o Lat.	22	842450	periodical	1.0	0.0	False
843.517	0.0	2Suff PseudoStemNW	24	843517	pinonical	0.0		False
845.917	0.0	2Suff w/o Lat.	22	845917	functionally	1.0	0.0	False
846.734	0.0	0Suff w/o Lat.	2	846734	design	1.0	0.0	False
847.66	0.0	1Suff w/o Lat.	12	847660	intensive	1.0	0.0	False
848.527	0.0	0Suff w/o Lat.	2	848527	fury	1.0	0.0	False
849.494	0.0	0Suff w/o Lat.	2	849494	awe	1.0	0.0	False
850.527	0.0	0Suff NW	4	850527	mevion	0.0	1.0	False
851.628	0.0	2Suff w/o Lat.	22	851628	softener	1.0	0.0	False
852.561	0.0	0Suff NW	4	852561	girern	0.0	1.0	False
853.687	0.0	2Suff RealStemNW	25	853687	raceical	0.0	0.0	True
855.837	0.0	0Suff NW	4	855837	fleed	0.0	0.0	True
856.996	0.0	2Suff w/o Lat.	22	856996	substantially	1.0	0.0	False
858.663	0.0	2Suff Composite	23	858663	categorical	1.0	0.0	False
859.655	0.0	2Suff RealStemNW	25	859655	satirally	0.0	0.0	True
860.547	0.0	0Suff w/o Lat.	2	860547	pain	1.0	0.0	False
861.564	0.0	1Suff PseudoStemNW	14	861564	headthy	0.0		False
863.956	0.0	2Suff w/o Lat.	22	863956	nervousness	1.0	0.0	False
865.682	0.0	1Suff w/o Lat.	12	865682	director	1.0	0.0	False
866.524	0.0	2Suff w/o Lat.	22	866524	basically	1.0	0.0	False
867.391	0.0	2Suff w/o Lat.	22	867391	manliness	1.0	0.0	False
868.299	0.0	1Suff RealStemNW	15	868299	exhaustful	0.0	0.0	True
869.108	0.0	2Suff RealStemNW	25	869108	governancial	0.0	0.0	True
870.117	0.0	0Suff w/o Lat.	2	870117	compete	1.0	0.0	False
871.117	0.0	0Suff NW	4	871117	etil	0.0	1.0	False
872.251	0.0	2Suff PseudoStemNW	24	872251	lenctionally	0.0	1.0	False
873.434	0.0	1Suff PseudoStemNW	14	873434	prebitable	0.0	1.0	False
874.551	0.0	1Suff PseudoStemNW	14	874551	analkable	0.0	1.0	False
875.56	0.0	1Suff PseudoStemNW	14	875560	goulty	0.0	1.0	False
876.519	0.0	2Suff w/o Lat.	22	876519	polarize	1.0		False
878.919	0.0	0Suff w/o Lat.	2	878919	mobile	1.0		False
881.32	0.0	1Suff w/o Lat.	12	881320	aimless	1.0	0.0	False
882.145	0.0	1Suff w/o Lat.	12	882145	deadly	1.0	0.0	False
883.004	0.0	2Suff w/o Lat.	22	883004	furiously	1.0	0.0	False
883.812	0.0	1Suff w/o Lat.	12	883812	transition	1.0	0.0	False
884.679	0.0	1Suff w/o Lat.	12	884679	glorious	1.0	0.0	False
885.488	0.0	2Suff PseudoStemNW	24	885488	orifadator	0.0	1.0	False
886.672	0.0	2Suff PseudoStemNW	24	886672	falality	0.0	1.0	False
887.747	0.0	2Suff w/o Lat.	22	887747	educational	1.0	0.0	False
889.039	0.0	2Suff RealStemNW	25	889039	globical	0.0	0.0	True
890.756	0.0	1Suff PseudoStemNW	14	890756	deabonable	0.0	0.0	True
891.898	0.0	2Suff RealStemNW	25	891898	leadantate	0.0	1.0	False
893.074	0.0	0Suff NW	4	893074	isotent	0.0	1.0	False
894.224	0.0	2Suff RealStemNW	25	894224	dramationist	0.0	0.0	True
895.549	0.0	1Suff RealStemNW	15	895549	useive	0.0	1.0	False
897.225	0.0	1Suff RealStemNW	15	897225	painable	0.0	0.0	True
898.209	0.0	2Suff w/o Lat.	22	898209	gloriously	1.0	0.0	False
899.309	0.0	2Suff PseudoStemNW	24	899309	pafferential	0.0	1.0	False
901.176	0.0	2Suff PseudoStemNW	24	901176	tutiously	0.0	1.0	False
903.318	0.0	1Suff PseudoStemNW	14	903318	thashful	0.0	1.0	False
904.402	0.0	1Suff w/o Lat.	12	904402	magnetic	1.0	0.0	False
905.469	0.0	1Suff w/o Lat.	12	905469	sterilize	1.0	0.0	False
906.561	0.0	0Suff NW	4	906561	stoteld	0.0	1.0	False
907.987	0.0	2Suff RealStemNW	25	907987	decorural	0.0	1.0	False
909.279	0.0	1Suff PseudoStemNW	14	909279	devadive	0.0	1.0	False
910.429	0.0	1Suff w/o Lat.	12	910429	rhythmic	1.0	0.0	False
911.529	0.0	1Suff RealStemNW	15	911529	intensful	0.0	0.0	True
912.696	0.0	2Suff PseudoStemNW	24	912696	cidlical	0.0	1.0	False
914.13	0.0	0Suff w/o Lat.	2	914130	myth	1.0	0.0	False
915.272	0.0	1Suff RealStemNW	15	915272	differify	0.0	1.0	False
916.589	0.0	1Suff RealStemNW	15	916589	wakeive	0.0	0.0	True
917.823	0.0	0Suff w/o Lat.	2	917823	season	1.0	0.0	False
918.807	0.0	1Suff PseudoStemNW	14	918807	wrotify	0.0	1.0	False
919.965	0.0	2Suff Composite	23	919965	inflammation	1.0	0.0	False
921.349	0.0	1Suff RealStemNW	15	921349	leador	0.0	1.0	False
922.941	0.0	2Suff Composite	23	922941	deterministic	1.0	0.0	False
924.208	0.0	0Suff NW	4	924208	tipe	0.0	1.0	False
925.292	0.0	2Suff PseudoStemNW	24	925292	snoughtfully	0.0		False
927.701	0.0	1Suff w/o Lat.	12	927701	considerable	1.0	0.0	False
929.56	0.0	1Suff RealStemNW	15	929560	delightive	0.0	0.0	True
930.494	0.0	2Suff PseudoStemNW	24	930494	segnonistic	0.0	1.0	False
931.602	0.0	1Suff w/o Lat.	12	931602	essential	1.0	0.0	False
932.578	0.0	2Suff w/o Lat.	22	932578	awfully	1.0	0.0	False
933.569	0.0	1Suff w/o Lat.	12	933569	useful	1.0	0.0	False
934.445	0.0	1Suff RealStemNW	15	934445	assassinion	0.0	0.0	True
935.437	0.0	0Suff w/o Lat.	2	935437	glory	1.0	1.0	True
936.737	0.0	1Suff w/o Lat.	12	936737	idealize	1.0	0.0	False
937.962	0.0	0Suff w/o Lat.	2	937962	fast	1.0	0.0	False
938.829	0.0	2Suff w/o Lat.	22	938829	healthily	1.0	0.0	False
939.671	0.0	0Suff NW	4	939671	devade	0.0	1.0	False
941.147	0.0	2Suff PseudoStemNW	24	941147	pasklessly	0.0	1.0	False
942.397	0.0	2Suff RealStemNW	25	942397	familiately	0.0	0.0	True
957.744	0.0	2Suff w/o Lat.	22	957744	polarity	1.0	0.0	False
958.719	0.0	2Suff PseudoStemNW	24	958719	paftially	0.0	1.0	False
959.811	0.0	0Suff NW	4	959811	prowert	0.0	1.0	False
960.97	0.0	0Suff w/o Lat.	2	960970	ethic	1.0	0.0	False
961.978	0.0	0Suff w/o Lat.	2	961978	fate	1.0	0.0	False
962.903	0.0	1Suff w/o Lat.	12	962903	nervous	1.0	0.0	False
963.737	0.0	1Suff w/o Lat.	12	963737	global	1.0	0.0	False
965.354	0.0	2Suff RealStemNW	25	965354	periodally	0.0	0.0	True
966.371	0.0	2Suff w/ Lat.	21	966371	persistently	1.0	1.0	True
967.272	0.0	1Suff w/o Lat.	12	967272	decisive	1.0	0.0	False
968.605	0.0	2Suff w/o Lat.	22	968605	profitably	1.0	0.0	False
969.847	0.0	1Suff PseudoStemNW	14	969847	uspasional	0.0	1.0	False
972.215	0.0	0Suff w/o Lat.	2	972215	define	1.0	0.0	False
973.323	0.0	0Suff w/o Lat.	2	973323	aim	1.0	0.0	False
974.407	0.0	2Suff PseudoStemNW	24	974407	stitilization	0.0		False
976.808	0.0	0Suff w/o Lat.	2	976808	magnet	1.0		False
979.209	0.0	1Suff w/o Lat.	12	979209	trivial	1.0	0.0	False
980.992	0.0	2Suff w/ Lat.	21	980992	affectionate	1.0	0.0	False
982.134	0.0	1Suff w/o Lat.	12	982134	occasional	1.0	0.0	False
983.085	0.0	2Suff Composite	23	983085	simplification	1.0	0.0	False
984.102	0.0	1Suff w/o Lat.	12	984102	considerate	1.0	0.0	False
985.035	0.0	1Suff PseudoStemNW	14	985035	preguctable	0.0	1.0	False
986.277	0.0	1Suff RealStemNW	15	986277	marginic	0.0	1.0	False
987.603	0.0	2Suff Composite	23	987603	vexation	1.0	0.0	False
989.362	0.0	1Suff w/o Lat.	12	989362	racial	1.0	0.0	False
990.32	0.0	1Suff w/o Lat.	12	990320	soften	1.0	0.0	False
991.229	0.0	2Suff PseudoStemNW	24	991229	onnensively	0.0	1.0	False
992.588	0.0	1Suff PseudoStemNW	14	992588	subplencial	0.0	1.0	False
993.746	0.0	1Suff w/ Lat.	11	993746	projection	1.0	0.0	False
994.955	0.0	0Suff w/o Lat.	2	994955	trivia	1.0	0.0	False
996.38	0.0	0Suff NW	4	996380	gulbs	0.0	0.0	True
997.347	0.0	0Suff w/o Lat.	2	997347	cheer	1.0	0.0	False
999.69	0.0	2Suff w/o Lat.	22	999690	commentator	1.0	0.0	False
1000.557	0.0	0Suff NW	4	1000557	exufant	0.0	1.0	False
1001.782	0.0	0Suff NW	4	1001782	concoler	0.0	1.0	False
1003.299	0.0	2Suff RealStemNW	25	1003299	financeical	0.0	1.0	False
1005.108	0.0	1Suff w/o Lat.	12	1005108	mobilize	1.0		False
1007.509	0.0	2Suff PseudoStemNW	24	1007509	cossetitively	0.0		False
1009.91	0.0	2Suff w/ Lat.	21	1009910	projectionist	1.0	0.0	False
1011.102	0.0	1Suff w/o Lat.	12	1011102	provocative	1.0	0.0	False
1012.002	0.0	0Suff w/o Lat.	2	1012002	nerve	1.0	0.0	False
1012.877	0.0	0Suff NW	4	1012877	vimid	0.0	0.0	True
1013.736	0.0	2Suff w/o Lat.	22	1013736	successfully	1.0	0.0	False
1014.669	0.0	2Suff RealStemNW	25	1014669	editionate	0.0	1.0	False
1015.728	0.0	2Suff PseudoStemNW	24	1015728	chirdishness	0.0	0.0	True
1016.62	0.0	2Suff PseudoStemNW	24	1016620	comlomation	0.0	1.0	False
1017.712	0.0	2Suff w/o Lat.	22	1017712	partiality	1.0	0.0	False
1018.879	0.0	2Suff PseudoStemNW	24	1018879	pafleurization	0.0	1.0	False
1019.979	0.0	2Suff PseudoStemNW	24	1019979	snoughtlessly	0.0	1.0	False
1021.38	0.0	0Suff NW	4	1021380	pask	0.0	1.0	False
1022.572	0.0	0Suff NW	4	1022572	awd	0.0	1.0	False
1023.455	0.0	0Suff NW	4	1023455	stumia	0.0	1.0	False
1024.606	0.0	0Suff w/o Lat.	2	1024606	rhythm	1.0	0.0	False
1025.731	0.0	0Suff w/o Lat.	2	1025731	race	1.0	0.0	False
1026.59	0.0	1Suff w/o Lat.	12	1026590	originate	1.0	0.0	False
1027.49	0.0	1Suff RealStemNW	15	1027490	immunist	0.0	0.0	True
1028.399	0.0	2Suff RealStemNW	25	1028399	affirmatfully	0.0	0.0	True
1029.299	0.0	1Suff RealStemNW	15	1029299	restable	0.0		False
1031.7	0.0	1Suff PseudoStemNW	14	1031700	snightful	0.0	0.0	True
1033.775	0.0	0Suff w/o Lat.	2	1033775	period	1.0	0.0	False
1034.851	0.0	2Suff RealStemNW	25	1034851	soulively	0.0	1.0	False
1035.943	0.0	1Suff PseudoStemNW	14	1035943	imoatist	0.0	1.0	False
1037.068	0.0	0Suff NW	4	1037068	paffer	0.0	1.0	False
1038.093	0.0	2Suff w/ Lat.	21	1038093	conceptualize	1.0	0.0	False
1039.185	0.0	1Suff PseudoStemNW	14	1039185	falumful	0.0		False
1041.586	0.0	0Suff w/o Lat.	2	1041586	function	1.0	0.0	False
1042.503	0.0	1Suff w/o Lat.	12	1042503	realist	1.0	1.0	True
1043.495	0.0	2Suff w/o Lat.	22	1043495	editorial	1.0	0.0	False
1045.104	0.0	0Suff NW	4	1045104	ippune	0.0	1.0	False
1046.196	0.0	2Suff w/o Lat.	22	1046196	logically	1.0	0.0	False
1047.363	0.0	0Suff NW	4	1047363	coppent	0.0	1.0	False
1048.738	0.0	1Suff RealStemNW	15	1048738	idealate	0.0	0.0	True
1049.955	0.0	1Suff w/o Lat.	12	1049955	persuasive	1.0		False
1052.356	0.0	0Suff NW	4	1052356	eant	0.0		False
1054.757	0.0	2Suff RealStemNW	25	1054757	believator	0.0		False
1057.157	0.0	2Suff PseudoStemNW	24	1057157	restittably	0.0		False
1059.558	0.0	1Suff w/o Lat.	12	1059558	leader	1.0	0.0	False
1060.992	0.0	0Suff NW	4	1060992	lenction	0.0	1.0	False
1062.092	0.0	2Suff PseudoStemNW	24	1062092	hodelessly	0.0	1.0	False
1063.393	0.0	2Suff PseudoStemNW	24	1063393	headthily	0.0	1.0	False
1064.843	0.0	1Suff w/o Lat.	12	1064843	thicken	1.0	0.0	False
1065.752	0.0	0Suff w/ Lat.	1	1065752	subject	1.0	0.0	False
1066.744	0.0	0Suff w/o Lat.	2	1066744	thought	1.0	0.0	False
1067.627	0.0	2Suff RealStemNW	25	1067627	dramatilessly	0.0	0.0	True
1068.678	0.0	0Suff w/o Lat.	2	1068678	faith	1.0	0.0	False
1069.628	0.0	2Suff w/o Lat.	22	1069628	believably	1.0	0.0	False
1070.537	0.0	1Suff w/o Lat.	12	1070537	ritualist	1.0	0.0	False
1071.412	0.0	0Suff NW	4	1071412	corzess	0.0	1.0	False
1072.562	0.0	2Suff RealStemNW	25	1072562	projectliness	0.0	0.0	True
1073.996	0.0	2Suff RealStemNW	25	1073996	categorally	0.0	0.0	True
1074.93	0.0	2Suff RealStemNW	25	1074930	exhaustfully	0.0	0.0	True
1075.897	0.0	2Suff Composite	23	1075897	quotation	1.0		False
1078.297	0.0	1Suff RealStemNW	15	1078297	hopeable	0.0	0.0	True
1079.364	0.0	1Suff w/o Lat.	12	1079364	distinctive	1.0	0.0	False
1080.456	0.0	2Suff w/o Lat.	22	1080456	hopelessly	1.0	0.0	False
1081.523	0.0	2Suff Composite	23	1081523	characteristic	1.0	0.0	False
1083.291	0.0	2Suff w/o Lat.	22	1083291	friendliness	1.0		False
1085.7	0.0	2Suff RealStemNW	25	1085700	confessality	0.0		False
1088.1	0.0	2Suff Composite	23	1088100	dramatization	1.0		False
1090.501	0.0	1Suff PseudoStemNW	14	1090501	prowertion	0.0	0.0	True
1091.993	0.0	1Suff PseudoStemNW	14	1091993	affallion	0.0	0.0	True
1092.843	0.0	0Suff NW	4	1092843	wroty	0.0	1.0	False
1094.386	0.0	2Suff w/o Lat.	22	1094386	persuasively	1.0	0.0	False
1095.511	0.0	1Suff w/o Lat.	12	1095511	periodic	1.0	0.0	False
1096.595	0.0	0Suff w/o Lat.	2	1096595	health	1.0	0.0	False
1097.445	0.0	0Suff NW	4	1097445	prebit	0.0	0.0	True
1098.262	0.0	1Suff RealStemNW	15	1098262	successate	0.0	0.0	True
1099.446	0.0	2Suff w/o Lat.	22	1099446	validation	1.0	0.0	False
1100.387	0.0	1Suff RealStemNW	15	1100387	realify	0.0	1.0	False
1101.721	0.0	2Suff w/o Lat.	22	1101721	notification	1.0	0.0	False
1102.705	0.0	2Suff w/o Lat.	22	1102705	idealization	1.0	0.0	False
1104.247	0.0	1Suff PseudoStemNW	14	1104247	rhylphic	0.0	0.0	True
1106.089	0.0	2Suff w/o Lat.	22	1106089	partially	1.0	0.0	False
1107.415	0.0	1Suff w/o Lat.	12	1107415	financial	1.0	0.0	False
1108.573	0.0	2Suff PseudoStemNW	24	1108573	thashfulness	0.0	0.0	True
1109.882	0.0	2Suff w/o Lat.	22	1109882	confessional	1.0	0.0	False
1110.791	0.0	2Suff w/o Lat.	22	1110791	harmlessly	1.0	0.0	False
1111.649	0.0	1Suff RealStemNW	15	1111649	availless	0.0	0.0	True
1113.441	0.0	0Suff w/o Lat.	2	1113441	ritual	1.0	0.0	False
1132.256	0.0	0Suff w/o Lat.	2	1132256	reason	1.0	0.0	False
1133.206	0.0	1Suff w/o Lat.	12	1133206	familiar	1.0	0.0	False
1134.048	0.0	2Suff RealStemNW	25	1134048	transitality	0.0	0.0	True
1135.29	0.0	2Suff RealStemNW	25	1135290	definerize	0.0	1.0	False
1136.524	0.0	2Suff PseudoStemNW	24	1136524	priueurantly	0.0	1.0	False
1137.591	0.0	0Suff NW	4	1137591	hesa	0.0	1.0	False
1138.599	0.0	0Suff w/o Lat.	2	1138599	lead	1.0	1.0	True
1139.541	0.0	0Suff NW	4	1139541	fars	0.0	1.0	False
1140.925	0.0	1Suff w/o Lat.	12	1140925	painful	1.0	0.0	False
1142.084	0.0	0Suff w/o Lat.	2	1142084	part	1.0	0.0	False
1143.026	0.0	0Suff NW	4	1143026	onnense	0.0	0.0	True
1144.601	0.0	2Suff Composite	23	1144601	cannibalistic	1.0	0.0	False
1145.976	0.0	0Suff NW	4	1145976	falget	0.0	1.0	False
1147.185	0.0	0Suff w/o Lat.	2	1147185	hero	1.0	0.0	False
1148.436	0.0	2Suff w/o Lat.	22	1148436	wakefulness	1.0	1.0	True
1149.778	0.0	0Suff NW	4	1149778	ais	0.0	1.0	False
1150.878	0.0	1Suff w/o Lat.	12	1150878	orderly	1.0	0.0	False
1151.912	0.0	1Suff w/o Lat.	12	1151912	development	1.0	0.0	False
1152.937	0.0	1Suff w/o Lat.	12	1152937	different	1.0	0.0	False
1153.879	0.0	0Suff NW	4	1153879	pote	0.0	1.0	False
1154.946	0.0	0Suff w/o Lat.	2	1154946	assassin	1.0	0.0	False
1155.963	0.0	2Suff PseudoStemNW	24	1155963	essoilially	0.0	1.0	False
1157.072	0.0	0Suff NW	4	1157072	stitile	0.0	1.0	False
1158.105	0.0	1Suff w/o Lat.	12	1158105	thankful	1.0	0.0	False
1159.031	0.0	0Suff NW	4	1159031	frala	0.0	1.0	False
1160.073	0.0	1Suff PseudoStemNW	14	1160073	fralatic	0.0	1.0	False
1161.114	0.0	0Suff w/o Lat.	2	1161114	provoke	1.0	0.0	False
1162.081	0.0	0Suff NW	4	1162081	itcress	0.0	1.0	False
1163.223	0.0	2Suff w/o Lat.	22	1163223	stealthily	1.0	0.0	False
1164.265	0.0	0Suff NW	4	1164265	hode	0.0	1.0	False
1165.616	0.0	1Suff RealStemNW	15	1165616	relatful	0.0	0.0	True
1166.658	0.0	2Suff RealStemNW	25	1166658	isolatmental	0.0	1.0	False
1167.925	0.0	2Suff RealStemNW	25	1167925	vitalilessly	0.0	1.0	False
1169.6	0.0	2Suff w/o Lat.	22	1169600	relatively	1.0	0.0	False
1170.717	0.0	2Suff RealStemNW	25	1170717	executarity	0.0	1.0	False
1172.16	0.0	1Suff PseudoStemNW	14	1172160	paskful	0.0	1.0	False
1173.585	0.0	1Suff w/o Lat.	12	1173585	statistical	1.0	0.0	False
1174.685	0.0	1Suff w/o Lat.	12	1174685	sleepy	1.0	1.0	True
1176.444	0.0	1Suff w/o Lat.	12	1176444	difference	1.0	0.0	False
1177.503	0.0	0Suff NW	4	1177503	orifad	0.0	1.0	False
1178.695	0.0	2Suff w/o Lat.	22	1178695	cheerfulness	1.0	0.0	False
1179.704	0.0	2Suff RealStemNW	25	1179704	seasonical	0.0		False
1182.096	0.0	2Suff w/o Lat.	22	1182096	graciously	1.0	0.0	False
1182.946	0.0	2Suff w/o Lat.	22	1182946	provocatively	1.0	0.0	False
1183.88	0.0	0Suff NW	4	1183880	sork	0.0	0.0	True
1184.697	0.0	0Suff w/o Lat.	2	1184697	believe	1.0	0.0	False
1185.589	0.0	1Suff w/o Lat.	12	1185589	execution	1.0	0.0	False
1186.431	0.0	2Suff RealStemNW	25	1186431	realional	0.0	1.0	False
1188.481	0.0	2Suff RealStemNW	25	1188481	guiltioner	0.0	1.0	False
1189.832	0.0	2Suff RealStemNW	25	1189832	characterional	0.0	0.0	True
1191.566	0.0	2Suff RealStemNW	25	1191566	substanceical	0.0	1.0	False
1192.683	0.0	1Suff RealStemNW	15	1192683	instructate	0.0	1.0	False
1194.058	0.0	1Suff w/o Lat.	12	1194058	musical	1.0	1.0	True
1194.992	0.0	0Suff NW	4	1194992	headth	0.0	1.0	False
1195.984	0.0	2Suff Composite	23	1195984	futuristic	1.0	0.0	False
1197.692	0.0	2Suff w/ Lat.	21	1197692	affirmatively	1.0	0.0	False
1198.859	0.0	2Suff RealStemNW	25	1198859	isolatliness	0.0	1.0	False
1199.976	0.0	1Suff w/o Lat.	12	1199976	regrettable	1.0	0.0	False
1201.118	0.0	1Suff w/o Lat.	12	1201118	worthless	1.0	0.0	False
1202.027	0.0	1Suff w/o Lat.	12	1202027	substantial	1.0	0.0	False
1203.211	0.0	0Suff w/ Lat.	1	1203211	project	1.0	0.0	False
1204.261	0.0	0Suff NW	4	1204261	grame	0.0	1.0	False
1205.47	0.0	2Suff RealStemNW	25	1205470	materialional	0.0	1.0	False
1207.529	0.0	0Suff w/o Lat.	2	1207529	delight	1.0	0.0	False
1208.462	0.0	2Suff PseudoStemNW	24	1208462	prodfessively	0.0	1.0	False
1209.513	0.0	0Suff w/ Lat.	1	1209513	mistake	1.0	0.0	False
1210.43	0.0	0Suff NW	4	1210430	thack	0.0	1.0	False
1211.638	0.0	1Suff w/o Lat.	12	1211638	hopeless	1.0	0.0	False
1212.58	0.0	0Suff NW	4	1212580	rumic	0.0	1.0	False
1213.556	0.0	1Suff w/o Lat.	12	1213556	logical	1.0	0.0	False
1214.414	0.0	2Suff RealStemNW	25	1214414	accidentical	0.0	1.0	False
1215.381	0.0	2Suff w/o Lat.	22	1215381	outwardly	1.0	0.0	False
1216.281	0.0	2Suff PseudoStemNW	24	1216281	orifadality	0.0	1.0	False
1218.374	0.0	0Suff w/o Lat.	2	1218374	hope	1.0	0.0	False
1219.341	0.0	2Suff PseudoStemNW	24	1219341	snightfully	0.0	1.0	False
1220.666	0.0	0Suff w/o Lat.	2	1220666	time	1.0	0.0	False
1221.583	0.0	1Suff w/o Lat.	12	1221583	childish	1.0	0.0	False
1222.558	0.0	1Suff RealStemNW	15	1222558	nervate	0.0	1.0	False
1223.784	0.0	1Suff PseudoStemNW	14	1223784	paftial	0.0	1.0	False
1224.901	0.0	0Suff NW	4	1224901	cossete	0.0	1.0	False
1225.868	0.0	2Suff w/ Lat.	21	1225868	impressionism	1.0	0.0	False
1227.41	0.0	1Suff PseudoStemNW	14	1227410	concolerable	0.0	1.0	False
1229.135	0.0	1Suff PseudoStemNW	14	1229135	orifadate	0.0	1.0	False
1230.252	0.0	1Suff RealStemNW	15	1230252	educatate	0.0	0.0	True
1231.319	0.0	2Suff w/o Lat.	22	1231319	protectionist	1.0		False
1233.72	0.0	0Suff w/o Lat.	2	1233720	ideal	1.0	0.0	False
1234.962	0.0	2Suff Composite	23	1234962	confederation	1.0	1.0	True
1236.196	0.0	2Suff w/o Lat.	22	1236196	awfulness	1.0	0.0	False
1237.455	0.0	0Suff NW	4	1237455	rame	0.0	1.0	False
1239.68	0.0	1Suff RealStemNW	15	1239680	logicic	0.0	0.0	True
1240.614	0.0	2Suff w/o Lat.	22	1240614	additional	1.0	0.0	False
1241.689	0.0	1Suff w/o Lat.	12	1241689	glorify	1.0		False
1244.09	0.0	1Suff w/o Lat.	12	1244090	dramatic	1.0		False
1246.491	0.0	1Suff w/o Lat.	12	1246491	thoughtless	1.0		False
1248.892	0.0	0Suff NW	4	1248892	mosime	0.0		False
1251.292	0.0	1Suff w/o Lat.	12	1251292	awful	1.0	0.0	False
1253.093	0.0	1Suff RealStemNW	15	1253093	mistaker	0.0	0.0	True
1254.026	0.0	0Suff w/ Lat.	1	1254026	persist	1.0	0.0	False
1255.06	0.0	0Suff w/o Lat.	2	1255060	dead	1.0	0.0	False
1256.052	0.0	0Suff NW	4	1256052	manfin	0.0	1.0	False
1257.277	0.0	2Suff w/o Lat.	22	1257277	originator	1.0	0.0	False
1258.211	0.0	2Suff w/o Lat.	22	1258211	soulfully	1.0	0.0	False
1259.203	0.0	2Suff w/o Lat.	22	1259203	painfully	1.0	0.0	False
1260.053	0.0	1Suff RealStemNW	15	1260053	heroal	0.0	1.0	False
1261.57	0.0	1Suff w/o Lat.	12	1261570	architecture	1.0	0.0	False
1262.546	0.0	1Suff w/ Lat.	11	1262546	progressive	1.0	0.0	False
1263.596	0.0	1Suff PseudoStemNW	14	1263596	ramial	0.0	1.0	False
1265.046	0.0	2Suff Composite	23	1265046	vitalization	1.0	0.0	False
1266.03	0.0	1Suff RealStemNW	15	1266030	periodal	0.0		False
