onset	duration	trial_type	value	sample	stimulus	is_word	response	correct
40.887	0.0	0Suff w/o Lat.	2	40887	vaccine	1.0	0.0	False
42.179	0.0	0Suff w/o Lat.	2	42179	prophet	1.0	0.0	False
43.237	0.0	1Suff w/o Lat.	12	43237	helpless	1.0	0.0	False
44.254	0.0	0Suff NW	4	44254	allend	0.0	1.0	False
45.388	0.0	2Suff Composite	23	45388	orientation	1.0	0.0	False
46.505	0.0	0Suff w/o Lat.	2	46505	suit	1.0	0.0	False
47.522	0.0	0Suff NW	4	47522	flivit	0.0	1.0	False
48.681	0.0	2Suff w/o Lat.	22	48681	respectively	1.0	0.0	False
49.864	0.0	1Suff PseudoStemNW	14	49864	franical	0.0	1.0	False
51.023	0.0	2Suff RealStemNW	25	51023	joyality	0.0	1.0	False
52.615	0.0	0Suff w/o Lat.	2	52615	victim	1.0	0.0	False
53.641	0.0	2Suff w/o Lat.	22	53641	activity	1.0	0.0	False
54.741	0.0	1Suff w/o Lat.	12	54741	senseless	1.0	0.0	False
56.008	0.0	2Suff w/o Lat.	22	56008	computerize	1.0	1.0	True
57.442	0.0	2Suff RealStemNW	25	57442	expansishness	0.0	1.0	False
58.759	0.0	0Suff w/o Lat.	2	58759	truth	1.0	0.0	False
59.667	0.0	0Suff NW	4	59667	exfal	0.0	1.0	False
60.776	0.0	2Suff PseudoStemNW	24	60776	awnfully	0.0	1.0	False
62.16	0.0	1Suff w/o Lat.	12	62160	hearty	1.0	0.0	False
63.369	0.0	1Suff w/ Lat.	11	63369	objection	1.0	0.0	False
64.361	0.0	1Suff w/o Lat.	12	64361	symbolic	1.0	0.0	False
65.403	0.0	2Suff w/o Lat.	22	65403	measurably	1.0	0.0	False
66.686	0.0	1Suff w/ Lat.	11	66686	institution	1.0	0.0	False
67.653	0.0	1Suff w/o Lat.	12	67653	modernize	1.0	0.0	False
68.737	0.0	2Suff PseudoStemNW	24	68737	foptration	0.0	1.0	False
69.979	0.0	1Suff PseudoStemNW	14	69979	broler	0.0	1.0	False
71.038	0.0	2Suff PseudoStemNW	24	71038	comfernably	0.0	1.0	False
72.28	0.0	1Suff w/o Lat.	12	72280	careful	1.0	0.0	False
73.297	0.0	1Suff w/o Lat.	12	73297	endless	1.0	0.0	False
74.264	0.0	1Suff w/o Lat.	12	74264	clinical	1.0	0.0	False
75.222	0.0	1Suff w/ Lat.	11	75222	explosive	1.0	0.0	False
76.172	0.0	2Suff PseudoStemNW	24	76172	atstartively	0.0	1.0	False
77.448	0.0	2Suff PseudoStemNW	24	77448	healtily	0.0	1.0	False
78.607	0.0	1Suff PseudoStemNW	14	78607	lumsy	0.0	0.0	True
79.932	0.0	2Suff PseudoStemNW	24	79932	perfallionist	0.0	1.0	False
81.099	0.0	1Suff RealStemNW	15	81099	preferless	0.0	1.0	False
82.716	0.0	1Suff PseudoStemNW	14	82716	indless	0.0	1.0	False
84.092	0.0	0Suff NW	4	84092	moolure	0.0	1.0	False
85.159	0.0	2Suff w/o Lat.	22	85159	prophetically	1.0	0.0	False
87.093	0.0	2Suff w/o Lat.	22	87093	creativity	1.0	0.0	False
88.368	0.0	1Suff RealStemNW	15	88368	selfable	0.0	1.0	False
89.477	0.0	0Suff w/o Lat.	2	89477	magic	1.0	0.0	False
90.452	0.0	2Suff w/o Lat.	22	90452	magically	1.0	0.0	False
91.502	0.0	1Suff w/o Lat.	12	91502	personal	1.0	0.0	False
92.486	0.0	2Suff w/o Lat.	22	92486	sensibility	1.0	0.0	False
93.553	0.0	2Suff w/ Lat.	21	93553	institutional	1.0	0.0	False
94.737	0.0	0Suff NW	4	94737	lums	0.0	1.0	False
95.845	0.0	2Suff w/ Lat.	21	95845	conductivity	1.0	0.0	False
97.054	0.0	2Suff PseudoStemNW	24	97054	fipitation	0.0	1.0	False
98.321	0.0	1Suff w/o Lat.	12	98321	legalize	1.0	0.0	False
99.338	0.0	0Suff NW	4	99338	awn	0.0	1.0	False
100.672	0.0	0Suff w/ Lat.	1	100672	institute	1.0	0.0	False
102.464	0.0	1Suff PseudoStemNW	14	102464	onnention	0.0	1.0	False
103.756	0.0	2Suff RealStemNW	25	103756	victimilessly	0.0	1.0	False
105.373	0.0	2Suff w/o Lat.	22	105373	fruitlessly	1.0	0.0	False
106.557	0.0	0Suff NW	4	106557	rinch	0.0	1.0	False
107.824	0.0	1Suff RealStemNW	15	107824	magicic	0.0	1.0	False
109.191	0.0	1Suff w/o Lat.	12	109191	merciless	1.0	0.0	False
110.508	0.0	0Suff w/o Lat.	2	110508	moment	1.0	0.0	False
111.858	0.0	1Suff PseudoStemNW	14	111858	recrernive	0.0	1.0	False
113.184	0.0	1Suff PseudoStemNW	14	113184	simnify	0.0	1.0	False
114.476	0.0	2Suff w/ Lat.	21	114476	provisional	1.0	0.0	False
115.718	0.0	2Suff RealStemNW	25	115718	causional	0.0	0.0	True
117.394	0.0	0Suff w/o Lat.	2	117394	right	1.0	0.0	False
118.527	0.0	2Suff PseudoStemNW	24	118527	movectization	0.0	1.0	False
120.286	0.0	1Suff PseudoStemNW	14	120286	griedy	0.0	1.0	False
121.495	0.0	2Suff w/o Lat.	22	121495	joyously	1.0	0.0	False
123.062	0.0	2Suff w/o Lat.	22	123062	hastily	1.0	0.0	False
124.179	0.0	2Suff PseudoStemNW	24	124179	effornively	0.0	1.0	False
125.371	0.0	2Suff w/o Lat.	22	125371	clinically	1.0	0.0	False
126.571	0.0	0Suff w/o Lat.	2	126571	method	1.0	0.0	False
127.538	0.0	2Suff Composite	23	127538	ordination	1.0	0.0	False
128.955	0.0	0Suff NW	4	128955	esress	0.0	1.0	False
130.122	0.0	2Suff PseudoStemNW	24	130122	arbumentative	0.0	1.0	False
131.873	0.0	1Suff PseudoStemNW	14	131873	jokous	0.0	1.0	False
133.165	0.0	0Suff w/o Lat.	2	133165	fortune	1.0	0.0	False
134.265	0.0	1Suff w/o Lat.	12	134265	wonderful	1.0	0.0	False
135.382	0.0	1Suff RealStemNW	15	135382	civilist	0.0	0.0	True
136.533	0.0	1Suff w/o Lat.	12	136533	abolition	1.0	0.0	False
137.7	0.0	2Suff RealStemNW	25	137700	valufully	0.0	1.0	False
139.075	0.0	2Suff RealStemNW	25	139075	creatously	0.0	1.0	False
140.159	0.0	2Suff w/o Lat.	22	140159	selflessness	1.0	0.0	False
141.401	0.0	2Suff PseudoStemNW	24	141401	vetcination	0.0	1.0	False
142.71	0.0	1Suff w/o Lat.	12	142710	rightful	1.0	0.0	False
143.818	0.0	2Suff PseudoStemNW	24	143818	trithfully	0.0	1.0	False
144.877	0.0	0Suff w/o Lat.	2	144877	haste	1.0	0.0	False
145.969	0.0	2Suff PseudoStemNW	24	145969	patudation	0.0	1.0	False
147.203	0.0	1Suff w/o Lat.	12	147203	selfish	1.0	0.0	False
148.261	0.0	1Suff PseudoStemNW	14	148261	vetcinate	0.0	1.0	False
149.345	0.0	2Suff w/o Lat.	22	149345	admirably	1.0	0.0	False
150.404	0.0	0Suff w/ Lat.	1	150404	excess	1.0	0.0	False
151.479	0.0	1Suff RealStemNW	15	151479	relentable	0.0	1.0	False
153.021	0.0	2Suff w/o Lat.	22	153021	suitably	1.0	0.0	False
154.338	0.0	2Suff Composite	23	154338	penalization	1.0	0.0	False
155.939	0.0	0Suff w/o Lat.	2	155939	comic	1.0	0.0	False
156.881	0.0	2Suff PseudoStemNW	24	156881	mourdfully	0.0	1.0	False
157.956	0.0	1Suff PseudoStemNW	14	157956	arpive	0.0	1.0	False
159.056	0.0	2Suff PseudoStemNW	24	159056	byvrical	0.0	1.0	False
160.048	0.0	0Suff w/ Lat.	1	160048	effect	1.0	0.0	False
161.224	0.0	0Suff w/o Lat.	2	161224	own	1.0	0.0	False
162.191	0.0	0Suff w/ Lat.	1	162191	compose	1.0	0.0	False
163.158	0.0	2Suff RealStemNW	25	163158	classally	0.0	1.0	False
164.408	0.0	0Suff NW	4	164408	gunder	0.0	1.0	False
165.442	0.0	0Suff NW	4	165442	cank	0.0	1.0	False
166.492	0.0	2Suff Composite	23	166492	whimsical	1.0	0.0	False
167.551	0.0	0Suff NW	4	167551	selve	0.0	1.0	False
169.351	0.0	0Suff NW	4	169351	recrern	0.0	1.0	False
170.502	0.0	2Suff PseudoStemNW	24	170502	faicification	0.0	1.0	False
172.394	0.0	1Suff RealStemNW	15	172394	needable	0.0	1.0	False
173.853	0.0	2Suff w/o Lat.	22	173853	carefully	1.0	0.0	False
174.845	0.0	2Suff PseudoStemNW	24	174845	lokeliness	0.0	1.0	False
176.112	0.0	1Suff w/ Lat.	11	176112	conclusive	1.0	0.0	False
177.879	0.0	2Suff w/o Lat.	22	177879	collectively	1.0	1.0	True
179.012	0.0	1Suff w/o Lat.	12	179012	suitable	1.0	0.0	False
180.104	0.0	0Suff NW	4	180104	feal	0.0	1.0	False
181.188	0.0	2Suff w/o Lat.	22	181188	helpfully	1.0	0.0	False
182.605	0.0	1Suff PseudoStemNW	14	182605	rebuinal	0.0	1.0	False
183.789	0.0	1Suff PseudoStemNW	14	183789	indlidstive	0.0	1.0	False
185.289	0.0	2Suff RealStemNW	25	185289	actional	0.0	1.0	False
191.116	0.0	1Suff RealStemNW	15	191116	monumentic	0.0	0.0	True
192.975	0.0	2Suff w/o Lat.	22	192975	flexibility	1.0	0.0	False
194.092	0.0	2Suff w/o Lat.	22	194092	secondarily	1.0	0.0	False
195.142	0.0	2Suff Composite	23	195142	secularization	1.0	0.0	False
196.435	0.0	1Suff RealStemNW	15	196435	tacticic	0.0	1.0	False
197.652	0.0	0Suff NW	4	197652	fortord	0.0	1.0	False
198.81	0.0	0Suff w/o Lat.	2	198810	measure	1.0	0.0	False
199.927	0.0	2Suff w/o Lat.	22	199927	attentively	1.0	0.0	False
200.953	0.0	1Suff w/o Lat.	12	200953	commercial	1.0	0.0	False
202.186	0.0	1Suff w/o Lat.	12	202186	greedy	1.0	0.0	False
203.187	0.0	2Suff w/o Lat.	22	203187	masterfully	1.0	0.0	False
204.454	0.0	2Suff PseudoStemNW	24	204454	massienately	0.0	1.0	False
205.737	0.0	2Suff RealStemNW	25	205737	expressmental	0.0	1.0	False
206.979	0.0	2Suff w/o Lat.	22	206979	sensuality	1.0	0.0	False
208.363	0.0	0Suff w/o Lat.	2	208363	passion	1.0	0.0	False
209.547	0.0	1Suff PseudoStemNW	14	209547	darberous	0.0	1.0	False
210.681	0.0	0Suff NW	4	210681	coatage	0.0	1.0	False
211.948	0.0	1Suff w/o Lat.	12	211948	hasty	1.0	0.0	False
213.081	0.0	1Suff PseudoStemNW	14	213081	pipsonal	0.0	1.0	False
214.232	0.0	2Suff RealStemNW	25	214232	purifilessly	0.0	1.0	False
215.432	0.0	1Suff w/ Lat.	11	215432	conductive	1.0	0.0	False
216.491	0.0	0Suff NW	4	216491	orn	0.0	1.0	False
217.616	0.0	2Suff w/ Lat.	21	217616	effectiveness	1.0	0.0	False
218.775	0.0	0Suff w/o Lat.	2	218775	prefer	1.0	0.0	False
219.875	0.0	0Suff NW	4	219875	jany	0.0	1.0	False
221.034	0.0	1Suff PseudoStemNW	14	221034	atstartive	0.0	1.0	False
222.167	0.0	1Suff w/o Lat.	12	222167	ceaseless	1.0	0.0	False
223.71	0.0	1Suff w/o Lat.	12	223710	lusty	1.0	0.0	False
224.918	0.0	0Suff NW	4	224918	tablic	0.0	1.0	False
226.094	0.0	0Suff NW	4	226094	combere	0.0	1.0	False
227.152	0.0	1Suff RealStemNW	15	227152	effortable	0.0	0.0	True
228.194	0.0	1Suff RealStemNW	15	228194	momentish	0.0	1.0	False
229.795	0.0	0Suff NW	4	229795	arp	0.0	1.0	False
230.853	0.0	0Suff w/o Lat.	2	230853	greed	1.0	0.0	False
231.962	0.0	1Suff RealStemNW	15	231962	virtance	0.0	1.0	False
233.129	0.0	2Suff Composite	23	233129	limitation	1.0	0.0	False
234.221	0.0	0Suff NW	4	234221	efforn	0.0	1.0	False
235.53	0.0	2Suff RealStemNW	25	235530	opticical	0.0	1.0	False
236.855	0.0	0Suff w/o Lat.	2	236855	care	1.0	0.0	False
237.947	0.0	1Suff w/o Lat.	12	237947	kindly	1.0	0.0	False
239.073	0.0	2Suff w/o Lat.	22	239073	noisily	1.0	0.0	False
240.49	0.0	1Suff RealStemNW	15	240490	effectful	0.0	0.0	True
241.457	0.0	2Suff w/o Lat.	22	241457	fearfully	1.0	0.0	False
242.474	0.0	2Suff RealStemNW	25	242474	virtuerize	0.0	1.0	False
243.691	0.0	2Suff RealStemNW	25	243691	commerceical	0.0	1.0	False
245.108	0.0	2Suff RealStemNW	25	245108	ownmental	0.0	1.0	False
246.383	0.0	2Suff Composite	23	246383	fortification	1.0	0.0	False
247.984	0.0	0Suff NW	4	247984	dester	0.0	1.0	False
249.134	0.0	2Suff PseudoStemNW	24	249134	bleadfully	0.0	1.0	False
250.81	0.0	1Suff w/o Lat.	12	250810	monumental	1.0	0.0	False
251.902	0.0	0Suff w/o Lat.	2	251902	expand	1.0	0.0	False
253.094	0.0	0Suff w/o Lat.	2	253094	person	1.0	0.0	False
254.136	0.0	2Suff PseudoStemNW	24	254136	murpilessly	0.0	1.0	False
255.236	0.0	1Suff w/o Lat.	12	255236	cultural	1.0	0.0	False
256.361	0.0	0Suff w/ Lat.	1	256361	except	1.0	0.0	False
257.37	0.0	1Suff w/o Lat.	12	257370	herbal	1.0	0.0	False
258.429	0.0	2Suff Composite	23	258429	victimization	1.0	0.0	False
259.479	0.0	0Suff NW	4	259479	cronition	0.0	1.0	False
260.538	0.0	0Suff NW	4	260538	franic	0.0	1.0	False
261.688	0.0	1Suff w/o Lat.	12	261688	admirable	1.0	0.0	False
262.847	0.0	2Suff PseudoStemNW	24	262847	feamfully	0.0	1.0	False
263.972	0.0	2Suff w/ Lat.	21	263972	effectively	1.0	0.0	False
265.231	0.0	1Suff RealStemNW	15	265231	purant	0.0	1.0	False
266.356	0.0	1Suff w/o Lat.	12	266356	relentless	1.0	0.0	False
267.623	0.0	2Suff w/o Lat.	22	267623	causality	1.0	0.0	False
268.832	0.0	2Suff w/o Lat.	22	268832	relentlessly	1.0	0.0	False
270.066	0.0	2Suff w/o Lat.	22	270066	loneliness	1.0	0.0	False
271.316	0.0	0Suff w/o Lat.	2	271316	spirit	1.0	0.0	False
272.458	0.0	1Suff PseudoStemNW	14	272458	obwertive	0.0	1.0	False
273.525	0.0	1Suff RealStemNW	15	273525	noticeless	0.0	0.0	True
275.476	0.0	1Suff w/ Lat.	11	275476	presumable	1.0	0.0	False
276.951	0.0	0Suff NW	4	276951	faice	0.0	1.0	False
278.018	0.0	2Suff w/o Lat.	22	278018	foolishly	1.0	0.0	False
279.585	0.0	1Suff PseudoStemNW	14	279585	allendive	0.0	1.0	False
280.702	0.0	0Suff NW	4	280702	pimer	0.0	1.0	False
281.852	0.0	1Suff PseudoStemNW	14	281852	traphetic	0.0	1.0	False
283.036	0.0	2Suff RealStemNW	25	283036	objectfully	0.0	0.0	True
284.153	0.0	2Suff w/ Lat.	21	284153	expressionist	1.0	0.0	False
285.745	0.0	0Suff w/o Lat.	2	285745	mourn	1.0	0.0	False
286.862	0.0	2Suff w/o Lat.	22	286862	noticeably	1.0	0.0	False
288.171	0.0	0Suff w/o Lat.	2	288171	tradition	1.0	0.0	False
289.196	0.0	1Suff RealStemNW	15	289196	feverory	0.0		False
291.589	0.0	0Suff NW	4	291589	byvre	0.0	1.0	False
292.697	0.0	0Suff NW	4	292697	provace	0.0	1.0	False
293.923	0.0	1Suff RealStemNW	15	293923	industryic	0.0	1.0	False
295.073	0.0	0Suff NW	4	295073	trith	0.0	1.0	False
296.124	0.0	2Suff w/o Lat.	22	296124	industrialist	1.0	0.0	False
297.399	0.0	1Suff RealStemNW	15	297399	commerceic	0.0	1.0	False
298.583	0.0	2Suff w/o Lat.	22	298583	procedural	1.0	0.0	False
299.783	0.0	2Suff Composite	23	299783	annexation	1.0	0.0	False
301.058	0.0	2Suff RealStemNW	25	301058	feverality	0.0	0.0	True
302.467	0.0	2Suff w/o Lat.	22	302467	carelessly	1.0	0.0	False
303.442	0.0	1Suff PseudoStemNW	14	303442	comfernable	0.0	1.0	False
305.66	0.0	2Suff w/o Lat.	22	305660	drunkenness	1.0	0.0	False
307.41	0.0	2Suff RealStemNW	25	307410	actfully	0.0	0.0	True
308.702	0.0	2Suff RealStemNW	25	308702	regionical	0.0		False
311.111	0.0	1Suff w/o Lat.	12	311111	flexible	1.0	0.0	False
312.42	0.0	0Suff w/o Lat.	2	312420	proceed	1.0	0.0	False
313.987	0.0	2Suff Composite	23	313987	solidification	1.0	0.0	False
315.63	0.0	2Suff w/o Lat.	22	315630	attractively	1.0	0.0	False
317.155	0.0	2Suff PseudoStemNW	24	317155	connurtivity	0.0	1.0	False
318.33	0.0	0Suff NW	4	318330	retend	0.0		False
320.731	0.0	1Suff PseudoStemNW	14	320731	herfal	0.0	1.0	False
321.931	0.0	1Suff w/o Lat.	12	321931	helpful	1.0	0.0	False
323.582	0.0	1Suff RealStemNW	15	323582	selfory	0.0	1.0	False
324.707	0.0	0Suff w/ Lat.	1	324707	presume	1.0	0.0	False
325.766	0.0	0Suff w/o Lat.	2	325766	modern	1.0	0.0	False
327.291	0.0	1Suff w/o Lat.	12	327291	customary	1.0	0.0	False
328.383	0.0	0Suff NW	4	328383	victap	0.0	1.0	False
329.45	0.0	1Suff w/o Lat.	12	329450	expansive	1.0	0.0	False
330.467	0.0	1Suff RealStemNW	15	330467	comparatful	0.0		False
332.868	0.0	2Suff RealStemNW	25	332868	senseiously	0.0	1.0	False
334.094	0.0	0Suff w/o Lat.	2	334094	love	1.0	0.0	False
335.202	0.0	1Suff w/o Lat.	12	335202	industrial	1.0	0.0	False
336.286	0.0	2Suff PseudoStemNW	24	336286	trithfulness	0.0	1.0	False
337.495	0.0	2Suff Composite	23	337495	purification	1.0	0.0	False
338.512	0.0	0Suff w/o Lat.	2	338512	legal	1.0	0.0	False
339.504	0.0	0Suff w/o Lat.	2	339504	instinct	1.0	0.0	False
340.521	0.0	1Suff w/o Lat.	12	340521	effortless	1.0	0.0	False
347.564	0.0	2Suff PseudoStemNW	24	347564	andezation	0.0	1.0	False
348.673	0.0	2Suff RealStemNW	25	348673	sensator	0.0	1.0	False
349.99	0.0	2Suff w/o Lat.	22	349990	luckily	1.0	0.0	False
350.974	0.0	1Suff PseudoStemNW	14	350974	gunderful	0.0	1.0	False
351.991	0.0	0Suff w/o Lat.	2	351991	confide	1.0	1.0	True
353.049	0.0	0Suff NW	4	353049	obwert	0.0	1.0	False
354.091	0.0	0Suff NW	4	354091	navoun	0.0	1.0	False
355.275	0.0	2Suff w/o Lat.	22	355275	personally	1.0	0.0	False
356.676	0.0	1Suff PseudoStemNW	14	356676	comburer	0.0	1.0	False
358.151	0.0	2Suff w/ Lat.	21	358151	expressionism	1.0	0.0	False
359.51	0.0	1Suff RealStemNW	15	359510	exclusful	0.0	1.0	False
360.777	0.0	0Suff NW	4	360777	mourd	0.0	1.0	False
361.935	0.0	1Suff PseudoStemNW	14	361935	healty	0.0	1.0	False
363.428	0.0	0Suff w/o Lat.	2	363428	self	1.0	0.0	False
364.678	0.0	0Suff NW	4	364678	darber	0.0	1.0	False
366.012	0.0	0Suff w/o Lat.	2	366012	end	1.0	0.0	False
367.062	0.0	1Suff RealStemNW	15	367062	legalist	0.0	0.0	True
368.529	0.0	2Suff Composite	23	368529	filtration	1.0	0.0	False
369.846	0.0	1Suff PseudoStemNW	14	369846	awnful	0.0	1.0	False
371.13	0.0	2Suff RealStemNW	25	371130	admirical	0.0	1.0	False
372.614	0.0	0Suff w/o Lat.	2	372614	civil	1.0	0.0	False
373.606	0.0	0Suff w/o Lat.	2	373606	attract	1.0	0.0	False
374.623	0.0	0Suff w/o Lat.	2	374623	help	1.0	0.0	False
375.498	0.0	2Suff w/o Lat.	22	375498	traditionally	1.0	0.0	False
376.623	0.0	2Suff PseudoStemNW	24	376623	cronitionally	0.0	1.0	False
377.899	0.0	2Suff w/o Lat.	22	377899	symbolically	1.0	0.0	False
379.132	0.0	1Suff RealStemNW	15	379132	powerive	0.0	1.0	False
380.733	0.0	2Suff w/o Lat.	22	380733	breathlessly	1.0	0.0	False
382.008	0.0	2Suff w/o Lat.	22	382008	mournfully	1.0	0.0	False
383.184	0.0	2Suff w/o Lat.	22	383184	commercialism	1.0	0.0	False
384.426	0.0	1Suff w/o Lat.	12	384426	sharpen	1.0	0.0	False
386.193	0.0	2Suff w/o Lat.	22	386193	artfully	1.0	1.0	True
387.552	0.0	1Suff w/o Lat.	12	387552	selective	1.0	0.0	False
388.86	0.0	0Suff w/ Lat.	1	388860	conduct	1.0	0.0	False
389.911	0.0	1Suff PseudoStemNW	14	389911	selveless	0.0	1.0	False
391.486	0.0	2Suff RealStemNW	25	391486	exceptality	0.0	1.0	False
393.487	0.0	1Suff w/o Lat.	12	393487	victimize	1.0	0.0	False
394.696	0.0	2Suff w/o Lat.	22	394696	heroically	1.0	0.0	False
396.004	0.0	0Suff w/o Lat.	2	396004	class	1.0	0.0	False
397.338	0.0	2Suff w/o Lat.	22	397338	fertilizer	1.0	0.0	False
398.497	0.0	2Suff PseudoStemNW	24	398497	selvuality	0.0	1.0	False
399.672	0.0	0Suff w/ Lat.	1	399672	perfect	1.0	0.0	False
400.956	0.0	1Suff w/o Lat.	12	400956	slipper	1.0	0.0	False
402.165	0.0	2Suff PseudoStemNW	24	402165	soripsistic	0.0	1.0	False
403.923	0.0	0Suff NW	4	403923	ind	0.0	1.0	False
404.982	0.0	2Suff w/o Lat.	22	404982	kindliness	1.0	0.0	False
406.224	0.0	1Suff PseudoStemNW	14	406224	contituous	0.0	1.0	False
407.858	0.0	2Suff RealStemNW	25	407858	actality	0.0	1.0	False
408.95	0.0	2Suff RealStemNW	25	408950	excessfully	0.0	1.0	False
410.884	0.0	2Suff RealStemNW	25	410884	loneionist	0.0	1.0	False
412.068	0.0	0Suff w/o Lat.	2	412068	clinic	1.0	0.0	False
414.218	0.0	2Suff w/o Lat.	22	414218	customarily	1.0	0.0	False
415.61	0.0	0Suff w/o Lat.	2	415610	select	1.0	0.0	False
416.577	0.0	2Suff w/o Lat.	22	416577	nationally	1.0	0.0	False
417.594	0.0	2Suff w/o Lat.	22	417594	actively	1.0	0.0	False
418.561	0.0	1Suff PseudoStemNW	14	418561	brukal	0.0	1.0	False
419.62	0.0	2Suff PseudoStemNW	24	419620	darberously	0.0	1.0	False
420.729	0.0	2Suff PseudoStemNW	24	420729	spippery	0.0	1.0	False
421.929	0.0	1Suff w/o Lat.	12	421929	modulate	1.0	0.0	False
423.113	0.0	2Suff w/o Lat.	22	423113	spirituality	1.0	0.0	False
424.071	0.0	1Suff RealStemNW	15	424071	provisate	0.0	1.0	False
425.58	0.0	2Suff w/o Lat.	22	425580	carelessness	1.0	0.0	False
426.647	0.0	2Suff w/o Lat.	22	426647	effortlessly	1.0	0.0	False
427.606	0.0	2Suff RealStemNW	25	427606	identally	0.0	0.0	True
428.839	0.0	2Suff RealStemNW	25	428839	artional	0.0	1.0	False
430.373	0.0	2Suff w/o Lat.	22	430373	joyfully	1.0	0.0	False
431.449	0.0	2Suff w/o Lat.	22	431449	comically	1.0	0.0	False
432.474	0.0	0Suff NW	4	432474	arbub	0.0	1.0	False
433.558	0.0	0Suff w/o Lat.	2	433558	relent	1.0	0.0	False
435.216	0.0	1Suff w/o Lat.	12	435216	spiritual	1.0	0.0	False
436.233	0.0	2Suff w/o Lat.	22	436233	existential	1.0	0.0	False
437.35	0.0	2Suff Composite	23	437350	allegorical	1.0	1.0	True
438.692	0.0	1Suff RealStemNW	15	438692	creatful	0.0	1.0	False
440.385	0.0	0Suff NW	4	440385	clade	0.0	1.0	False
441.518	0.0	1Suff PseudoStemNW	14	441518	prosodure	0.0	1.0	False
442.769	0.0	0Suff w/o Lat.	2	442769	fool	1.0	0.0	False
443.927	0.0	2Suff w/o Lat.	22	443927	modernistic	1.0	0.0	False
445.094	0.0	0Suff w/o Lat.	2	445094	tactic	1.0	0.0	False
446.12	0.0	0Suff NW	4	446120	lurtile	0.0	1.0	False
447.395	0.0	0Suff w/o Lat.	2	447395	dread	1.0	0.0	False
448.57	0.0	2Suff w/o Lat.	22	448570	personality	1.0	0.0	False
449.779	0.0	2Suff w/o Lat.	22	449779	uselessly	1.0	0.0	False
450.871	0.0	2Suff RealStemNW	25	450871	clinicical	0.0	0.0	True
451.838	0.0	2Suff PseudoStemNW	24	451838	excrodiveness	0.0	1.0	False
453.355	0.0	0Suff w/o Lat.	2	453355	compute	1.0	0.0	False
454.572	0.0	2Suff w/o Lat.	22	454572	confidential	1.0	0.0	False
455.631	0.0	1Suff w/o Lat.	12	455631	active	1.0	0.0	False
456.64	0.0	2Suff PseudoStemNW	24	456640	pogularization	0.0	1.0	False
458.065	0.0	2Suff RealStemNW	25	458065	dergadfully	0.0	1.0	False
459.44	0.0	1Suff w/o Lat.	12	459440	artist	1.0	0.0	False
461.016	0.0	1Suff w/o Lat.	12	461016	noticeable	1.0	0.0	False
462.141	0.0	1Suff w/o Lat.	12	462141	fortunate	1.0	0.0	False
463.275	0.0	2Suff RealStemNW	25	463275	flexfulness	0.0	1.0	False
465.576	0.0	0Suff w/o Lat.	2	465576	vary	1.0	0.0	False
466.668	0.0	1Suff PseudoStemNW	14	466668	bleadful	0.0	1.0	False
467.876	0.0	0Suff w/o Lat.	2	467876	luck	1.0	1.0	True
469.027	0.0	0Suff w/o Lat.	2	469027	collect	1.0	0.0	False
470.219	0.0	1Suff PseudoStemNW	14	470219	shacten	0.0	1.0	False
471.419	0.0	2Suff RealStemNW	25	471419	momentantly	0.0	1.0	False
473.72	0.0	2Suff w/o Lat.	22	473720	nationality	1.0	0.0	False
474.854	0.0	2Suff w/ Lat.	21	474854	exclusiveness	1.0	0.0	False
475.904	0.0	1Suff w/o Lat.	12	475904	sensual	1.0	0.0	False
476.913	0.0	1Suff RealStemNW	15	476913	modulion	0.0	1.0	False
479.238	0.0	2Suff PseudoStemNW	24	479238	canklessly	0.0	1.0	False
480.955	0.0	0Suff NW	4	480955	simn	0.0	1.0	False
482.172	0.0	2Suff RealStemNW	25	482172	computitely	0.0	1.0	False
484.098	0.0	0Suff NW	4	484098	combure	0.0	1.0	False
485.248	0.0	2Suff Composite	23	485248	classification	1.0	0.0	False
486.49	0.0	1Suff w/o Lat.	12	486490	careless	1.0	0.0	False
487.532	0.0	1Suff w/o Lat.	12	487532	drunken	1.0	0.0	False
488.883	0.0	0Suff w/o Lat.	2	488883	cease	1.0	0.0	False
489.983	0.0	1Suff w/o Lat.	12	489983	various	1.0	0.0	False
490.975	0.0	1Suff w/o Lat.	12	490975	righteous	1.0	0.0	False
492.009	0.0	2Suff w/o Lat.	22	492009	cyclical	1.0	0.0	False
493.601	0.0	1Suff w/o Lat.	12	493601	attentive	1.0	0.0	False
494.61	0.0	1Suff w/o Lat.	12	494610	existence	1.0	0.0	False
496.135	0.0	2Suff w/ Lat.	21	496135	perfectionism	1.0	0.0	False
497.452	0.0	2Suff PseudoStemNW	24	497452	pipsonally	0.0	1.0	False
498.694	0.0	2Suff w/o Lat.	22	498694	civilization	1.0	0.0	False
501.037	0.0	1Suff RealStemNW	15	501037	composian	0.0	1.0	False
502.329	0.0	0Suff w/o Lat.	2	502329	art	1.0	0.0	False
503.312	0.0	0Suff w/o Lat.	2	503312	excel	1.0	0.0	False
504.329	0.0	2Suff Composite	23	504329	probation	1.0	0.0	False
505.538	0.0	2Suff w/o Lat.	22	505538	suitability	1.0	0.0	False
506.58	0.0	1Suff RealStemNW	15	506580	falsant	0.0	1.0	False
507.922	0.0	0Suff w/o Lat.	2	507922	broke	1.0	0.0	False
508.872	0.0	0Suff w/o Lat.	2	508872	kind	1.0	0.0	False
509.773	0.0	1Suff w/o Lat.	12	509773	comfortable	1.0	0.0	False
510.698	0.0	1Suff PseudoStemNW	14	510698	omlical	0.0	1.0	False
511.723	0.0	1Suff RealStemNW	15	511723	stylify	0.0	1.0	False
512.815	0.0	2Suff PseudoStemNW	24	512815	lurtilizer	0.0	1.0	False
513.882	0.0	2Suff w/ Lat.	21	513882	objectionable	1.0	0.0	False
515.166	0.0	2Suff w/o Lat.	22	515166	personalize	1.0	0.0	False
516.466	0.0	2Suff w/ Lat.	21	516466	objectively	1.0	0.0	False
517.683	0.0	2Suff w/o Lat.	22	517683	beautifully	1.0	0.0	False
518.7	0.0	0Suff w/o Lat.	2	518700	compare	1.0	0.0	False
519.601	0.0	2Suff RealStemNW	25	519601	farcally	0.0	1.0	False
520.701	0.0	2Suff Composite	23	520701	voyeuristic	1.0	0.0	False
522.001	0.0	2Suff w/o Lat.	22	522001	loveliness	1.0	0.0	False
523.21	0.0	1Suff w/ Lat.	11	523210	exclusive	1.0	0.0	False
524.227	0.0	2Suff w/o Lat.	22	524227	sensibly	1.0	0.0	False
525.219	0.0	2Suff w/o Lat.	22	525219	falsification	1.0	0.0	False
526.236	0.0	0Suff w/o Lat.	2	526236	cycle	1.0	0.0	False
527.203	0.0	0Suff NW	4	527203	massien	0.0	1.0	False
528.395	0.0	1Suff w/o Lat.	12	528395	vaccinate	1.0	0.0	False
529.279	0.0	0Suff NW	4	529279	nead	0.0	0.0	True
530.537	0.0	2Suff RealStemNW	25	530537	penalilessly	0.0	1.0	False
531.696	0.0	2Suff RealStemNW	25	531696	instinctfully	0.0	1.0	False
533.247	0.0	1Suff RealStemNW	15	533247	tireable	0.0	0.0	True
534.505	0.0	2Suff RealStemNW	25	534505	stylional	0.0	1.0	False
535.606	0.0	1Suff w/o Lat.	12	535606	joyous	1.0	0.0	False
536.581	0.0	2Suff w/ Lat.	21	536581	inspirational	1.0	0.0	False
537.54	0.0	2Suff RealStemNW	25	537540	excellalism	0.0	1.0	False
538.54	0.0	0Suff w/o Lat.	2	538540	notice	1.0	0.0	False
539.473	0.0	0Suff w/o Lat.	2	539473	lone	1.0	0.0	False
540.524	0.0	1Suff w/o Lat.	12	540524	powerful	1.0	0.0	False
541.457	0.0	0Suff NW	4	541457	blunk	0.0	1.0	False
542.674	0.0	0Suff w/o Lat.	2	542674	courage	1.0	0.0	False
543.666	0.0	0Suff w/o Lat.	2	543666	joy	1.0	0.0	False
544.617	0.0	2Suff w/o Lat.	22	544617	argumentative	1.0	0.0	False
545.817	0.0	2Suff w/o Lat.	22	545817	helplessly	1.0	0.0	False
546.767	0.0	2Suff PseudoStemNW	24	546767	conwodential	0.0	1.0	False
548.46	0.0	2Suff RealStemNW	25	548460	brokiness	0.0	1.0	False
549.793	0.0	1Suff w/o Lat.	12	549793	excellent	1.0	0.0	False
550.785	0.0	2Suff w/ Lat.	21	550785	conclusively	1.0	0.0	False
551.877	0.0	0Suff w/o Lat.	2	551877	sign	1.0	0.0	False
552.919	0.0	0Suff w/o Lat.	2	552919	exist	1.0	0.0	False
553.828	0.0	1Suff w/o Lat.	12	553828	modernist	1.0	0.0	False
554.878	0.0	0Suff w/ Lat.	1	554878	conclude	1.0	0.0	False
555.837	0.0	1Suff RealStemNW	15	555837	continuic	0.0	1.0	False
557.379	0.0	1Suff RealStemNW	15	557379	mercyive	0.0	1.0	False
558.563	0.0	0Suff NW	4	558563	feam	0.0	1.0	False
559.73	0.0	0Suff NW	4	559730	sedule	0.0	1.0	False
560.98	0.0	0Suff NW	4	560980	atstart	0.0	1.0	False
562.347	0.0	0Suff w/o Lat.	2	562347	sense	1.0	0.0	False
563.523	0.0	2Suff w/o Lat.	22	563523	modulation	1.0	0.0	False
564.565	0.0	0Suff w/o Lat.	2	564565	symbol	1.0	0.0	False
565.49	0.0	2Suff RealStemNW	25	565490	selectously	0.0	1.0	False
567.04	0.0	0Suff w/ Lat.	1	567040	express	1.0	0.0	False
568.416	0.0	0Suff w/o Lat.	2	568416	pure	1.0	0.0	False
569.374	0.0	2Suff w/o Lat.	22	569374	selectivity	1.0	0.0	False
570.25	0.0	2Suff w/o Lat.	22	570250	passionately	1.0	0.0	False
571.192	0.0	2Suff w/o Lat.	22	571192	truthfully	1.0	0.0	False
572.083	0.0	0Suff w/ Lat.	1	572083	provide	1.0	0.0	False
572.967	0.0	2Suff RealStemNW	25	572967	commerceantly	0.0	1.0	False
574.351	0.0	2Suff RealStemNW	25	574351	unifilessly	0.0	1.0	False
575.935	0.0	1Suff w/o Lat.	12	575935	broker	1.0	0.0	False
577.193	0.0	2Suff PseudoStemNW	24	577193	arresogical	0.0	1.0	False
578.41	0.0	2Suff RealStemNW	25	578410	breathiously	0.0	1.0	False
579.511	0.0	0Suff w/o Lat.	2	579511	danger	1.0	0.0	False
580.569	0.0	2Suff w/o Lat.	22	580569	spiritualism	1.0	0.0	False
581.745	0.0	2Suff RealStemNW	25	581745	endiously	0.0	1.0	False
584.071	0.0	1Suff PseudoStemNW	14	584071	seetable	0.0	1.0	False
585.154	0.0	2Suff w/o Lat.	22	585154	wonderfully	1.0	0.0	False
586.438	0.0	2Suff RealStemNW	25	586438	selfiveness	0.0	1.0	False
588.472	0.0	1Suff w/o Lat.	12	588472	critical	1.0	0.0	False
589.43	0.0	1Suff w/o Lat.	12	589430	measurable	1.0	0.0	False
590.472	0.0	2Suff w/o Lat.	22	590472	creatively	1.0	0.0	False
591.431	0.0	2Suff PseudoStemNW	24	591431	mocondarily	0.0	1.0	False
593.04	0.0	2Suff w/ Lat.	21	593040	excessively	1.0	0.0	False
594.399	0.0	1Suff PseudoStemNW	14	594399	rincheous	0.0	1.0	False
595.607	0.0	2Suff w/o Lat.	22	595607	nationalist	1.0	0.0	False
596.624	0.0	1Suff PseudoStemNW	14	596624	londly	0.0	1.0	False
597.85	0.0	2Suff RealStemNW	25	597850	noticeator	0.0	1.0	False
598.983	0.0	1Suff w/o Lat.	12	598983	justify	1.0	0.0	False
599.975	0.0	0Suff NW	4	599975	meleft	0.0	1.0	False
601.309	0.0	2Suff PseudoStemNW	24	601309	rinchfully	0.0	1.0	False
602.601	0.0	1Suff w/o Lat.	12	602601	collective	1.0	0.0	False
603.602	0.0	2Suff w/o Lat.	22	603602	legalization	1.0	0.0	False
604.577	0.0	2Suff PseudoStemNW	24	604577	navounalism	0.0	1.0	False
605.861	0.0	0Suff NW	4	605861	colliff	0.0	1.0	False
606.911	0.0	0Suff w/o Lat.	2	606911	sharp	1.0	0.0	False
607.945	0.0	0Suff NW	4	607945	brealt	0.0	1.0	False
609.603	0.0	1Suff w/o Lat.	12	609603	purify	1.0	0.0	False
610.812	0.0	1Suff w/o Lat.	12	610812	creative	1.0	0.0	False
611.771	0.0	1Suff w/ Lat.	11	611771	perfection	1.0	0.0	False
612.763	0.0	2Suff w/o Lat.	22	612763	truthfulness	1.0	0.0	False
613.746	0.0	0Suff w/o Lat.	2	613746	continue	1.0	0.0	False
614.663	0.0	2Suff RealStemNW	25	614663	foolality	0.0	1.0	False
616.43	0.0	2Suff w/ Lat.	21	616430	composition	1.0	0.0	False
617.414	0.0	2Suff w/o Lat.	22	617414	heartily	1.0	0.0	False
618.981	0.0	0Suff NW	4	618981	cedil	0.0	1.0	False
620.357	0.0	2Suff w/o Lat.	22	620357	continuously	1.0	0.0	False
621.432	0.0	1Suff RealStemNW	15	621432	truthive	0.0	1.0	False
623.116	0.0	0Suff w/o Lat.	2	623116	custom	1.0	0.0	False
624.016	0.0	1Suff w/o Lat.	12	624016	brutal	1.0	0.0	False
624.966	0.0	0Suff w/o Lat.	2	624966	lust	1.0	0.0	False
626.167	0.0	2Suff PseudoStemNW	24	626167	comborition	0.0	1.0	False
627.642	0.0	2Suff w/o Lat.	22	627642	humanistic	1.0	0.0	False
628.909	0.0	2Suff Composite	23	628909	sensation	1.0	0.0	False
629.935	0.0	1Suff w/o Lat.	12	629935	methodical	1.0	0.0	False
630.985	0.0	1Suff RealStemNW	15	630985	careive	0.0	1.0	False
632.06	0.0	2Suff PseudoStemNW	24	632060	pimerfully	0.0	1.0	False
634.336	0.0	1Suff w/o Lat.	12	634336	lucky	1.0	0.0	False
635.27	0.0	1Suff PseudoStemNW	14	635270	precukable	0.0	1.0	False
636.962	0.0	1Suff PseudoStemNW	14	636962	cuppomary	0.0	1.0	False
638.12	0.0	1Suff RealStemNW	15	638120	kinden	0.0	1.0	False
639.546	0.0	2Suff w/o Lat.	22	639546	momentarily	1.0	1.0	True
655.509	0.0	1Suff w/o Lat.	12	655509	assertive	1.0	0.0	False
656.518	0.0	0Suff NW	4	656518	carsh	0.0	1.0	False
657.743	0.0	0Suff w/o Lat.	2	657743	respect	1.0	0.0	False
658.66	0.0	1Suff PseudoStemNW	14	658660	desterful	0.0	1.0	False
659.927	0.0	0Suff NW	4	659927	contitum	0.0	1.0	False
661.394	0.0	0Suff w/o Lat.	2	661394	comfort	1.0	0.0	False
662.345	0.0	2Suff w/o Lat.	22	662345	nationalism	1.0	0.0	False
663.312	0.0	1Suff w/o Lat.	12	663312	fruitless	1.0	0.0	False
664.554	0.0	0Suff w/o Lat.	2	664554	fear	1.0	0.0	False
665.521	0.0	0Suff w/o Lat.	2	665521	power	1.0	0.0	False
666.438	0.0	2Suff Composite	23	666438	embarkation	1.0	1.0	True
667.463	0.0	2Suff RealStemNW	25	667463	signmentive	0.0	1.0	False
668.997	0.0	2Suff PseudoStemNW	24	668997	shactener	0.0	1.0	False
670.222	0.0	2Suff RealStemNW	25	670222	useiously	0.0	1.0	False
671.197	0.0	1Suff w/o Lat.	12	671197	respective	1.0	0.0	False
672.873	0.0	0Suff NW	4	672873	indlidst	0.0	1.0	False
673.94	0.0	0Suff NW	4	673940	seet	0.0	1.0	False
674.973	0.0	1Suff w/o Lat.	12	674973	virtuous	1.0	0.0	False
676.015	0.0	0Suff w/o Lat.	2	676015	assert	1.0	0.0	False
676.999	0.0	1Suff w/o Lat.	12	676999	cyclic	1.0	0.0	False
678.024	0.0	2Suff RealStemNW	25	678024	customantly	0.0	1.0	False
679.8	0.0	2Suff RealStemNW	25	679800	identifilessly	0.0	1.0	False
681.567	0.0	1Suff w/o Lat.	12	681567	magical	1.0	0.0	False
682.634	0.0	2Suff RealStemNW	25	682634	neediously	0.0	1.0	False
684.476	0.0	2Suff Composite	23	684476	nullification	1.0	0.0	False
685.885	0.0	1Suff PseudoStemNW	14	685885	inflisation	0.0	1.0	False
687.144	0.0	1Suff w/ Lat.	11	687144	expression	1.0	0.0	False
688.078	0.0	2Suff RealStemNW	25	688078	vulgarilessly	0.0		False
690.478	0.0	0Suff w/o Lat.	2	690478	commerce	1.0	0.0	False
691.895	0.0	2Suff w/o Lat.	22	691895	instinctively	1.0	0.0	False
693.546	0.0	1Suff w/o Lat.	12	693546	falsify	1.0	0.0	False
694.721	0.0	0Suff NW	4	694721	nolfs	0.0	1.0	False
695.713	0.0	2Suff Composite	23	695713	unification	1.0	0.0	False
697.039	0.0	1Suff RealStemNW	15	697039	cyclal	0.0	1.0	False
698.156	0.0	2Suff RealStemNW	25	698156	intentality	0.0		False
700.565	0.0	0Suff w/ Lat.	1	700565	explode	1.0	0.0	False
701.557	0.0	1Suff w/o Lat.	12	701557	attractive	1.0	0.0	False
702.532	0.0	2Suff PseudoStemNW	24	702532	murpifully	0.0	1.0	False
703.707	0.0	0Suff NW	4	703707	greard	0.0	1.0	False
704.733	0.0	2Suff PseudoStemNW	24	704733	arpivity	0.0	1.0	False
705.783	0.0	1Suff w/o Lat.	12	705783	regional	1.0	0.0	False
707.125	0.0	0Suff w/o Lat.	2	707125	flex	1.0	0.0	False
708.167	0.0	2Suff w/o Lat.	22	708167	selectively	1.0	0.0	False
709.192	0.0	2Suff PseudoStemNW	24	709192	flivitually	0.0	1.0	False
710.351	0.0	1Suff PseudoStemNW	14	710351	nolfy	0.0	1.0	False
711.426	0.0	2Suff PseudoStemNW	24	711426	movectistic	0.0	1.0	False
712.477	0.0	1Suff PseudoStemNW	14	712477	arbument	0.0	1.0	False
713.594	0.0	2Suff w/o Lat.	22	713594	abolitionist	1.0	0.0	False
714.886	0.0	1Suff RealStemNW	15	714886	fearive	0.0	1.0	False
715.928	0.0	2Suff RealStemNW	25	715928	fruitiously	0.0	0.0	True
717.678	0.0	1Suff PseudoStemNW	14	717678	orner	0.0	1.0	False
718.762	0.0	0Suff w/o Lat.	2	718762	noise	1.0	0.0	False
719.654	0.0	2Suff w/o Lat.	22	719654	endlessly	1.0	0.0	False
720.596	0.0	1Suff w/o Lat.	12	720596	secondary	1.0	0.0	False
721.529	0.0	2Suff PseudoStemNW	24	721529	navounality	0.0	1.0	False
722.638	0.0	2Suff PseudoStemNW	24	722638	abadilionist	0.0	1.0	False
723.805	0.0	1Suff w/o Lat.	12	723805	stylist	1.0	0.0	False
724.805	0.0	1Suff w/o Lat.	12	724805	continuous	1.0	0.0	False
725.906	0.0	1Suff w/o Lat.	12	725906	dreadful	1.0	0.0	False
726.939	0.0	2Suff w/o Lat.	22	726939	modernization	1.0	0.0	False
727.965	0.0	2Suff RealStemNW	25	727965	inspiratality	0.0	1.0	False
729.24	0.0	0Suff w/o Lat.	2	729240	heart	1.0	0.0	False
730.332	0.0	1Suff PseudoStemNW	14	730332	moolurable	0.0	1.0	False
731.483	0.0	2Suff RealStemNW	25	731483	alterlessly	0.0	1.0	False
732.566	0.0	0Suff w/o Lat.	2	732566	brute	1.0	0.0	False
733.658	0.0	2Suff RealStemNW	25	733658	couragliness	0.0	0.0	True
734.884	0.0	2Suff RealStemNW	25	734884	heroliness	0.0	0.0	True
735.867	0.0	0Suff w/o Lat.	2	735867	culture	1.0	0.0	False
736.868	0.0	0Suff NW	4	736868	ewils	0.0	1.0	False
737.96	0.0	0Suff NW	4	737960	inflise	0.0	1.0	False
739.035	0.0	1Suff RealStemNW	15	739035	nationic	0.0	1.0	False
740.194	0.0	2Suff PseudoStemNW	24	740194	utiethation	0.0	1.0	False
741.211	0.0	2Suff RealStemNW	25	741211	synchronilessly	0.0	1.0	False
742.836	0.0	1Suff w/o Lat.	12	742836	mournful	1.0	0.0	False
743.92	0.0	1Suff w/o Lat.	12	743920	procedure	1.0	0.0	False
744.995	0.0	2Suff w/o Lat.	22	744995	rightfully	1.0	0.0	False
745.995	0.0	1Suff PseudoStemNW	14	745995	elpardive	0.0	1.0	False
747.512	0.0	2Suff RealStemNW	25	747512	brutantly	0.0	0.0	True
748.479	0.0	1Suff w/o Lat.	12	748479	masterful	1.0	0.0	False
749.538	0.0	1Suff PseudoStemNW	14	749538	brealtless	0.0	1.0	False
750.905	0.0	0Suff NW	4	750905	spip	0.0	1.0	False
751.88	0.0	2Suff Composite	23	751880	valuation	1.0	0.0	False
753.023	0.0	2Suff RealStemNW	25	753023	nationical	0.0	1.0	False
754.431	0.0	1Suff w/o Lat.	12	754431	argument	1.0	0.0	False
755.457	0.0	1Suff w/o Lat.	12	755457	classic	1.0	0.0	False
756.34	0.0	0Suff w/o Lat.	2	756340	monument	1.0	0.0	False
757.391	0.0	2Suff RealStemNW	25	757391	continliness	0.0	1.0	False
758.783	0.0	1Suff RealStemNW	15	758783	perfectate	0.0	0.0	True
760.125	0.0	0Suff w/o Lat.	2	760125	argue	1.0	0.0	False
761.242	0.0	2Suff PseudoStemNW	24	761242	ewilsential	0.0	1.0	False
762.334	0.0	1Suff RealStemNW	15	762334	helpive	0.0	1.0	False
763.601	0.0	2Suff RealStemNW	25	763601	nationantly	0.0	1.0	False
765.226	0.0	2Suff PseudoStemNW	24	765226	flivitualism	0.0	1.0	False
766.668	0.0	0Suff w/o Lat.	2	766668	region	1.0	0.0	False
767.594	0.0	0Suff NW	4	767594	herf	0.0	1.0	False
768.611	0.0	2Suff RealStemNW	25	768611	masterively	0.0	1.0	False
770.128	0.0	2Suff RealStemNW	25	770128	variality	0.0	1.0	False
771.37	0.0	0Suff w/o Lat.	2	771370	just	1.0	0.0	False
772.495	0.0	2Suff RealStemNW	25	772495	industriantly	0.0	1.0	False
774.037	0.0	2Suff w/o Lat.	22	774037	senselessly	1.0	0.0	False
775.371	0.0	2Suff w/o Lat.	22	775371	activate	1.0	0.0	False
776.546	0.0	2Suff PseudoStemNW	24	776546	jokfully	0.0	1.0	False
777.663	0.0	2Suff PseudoStemNW	24	777663	booftifully	0.0	1.0	False
779.597	0.0	0Suff NW	4	779597	indolsty	0.0	1.0	False
780.814	0.0	2Suff w/o Lat.	22	780814	preferably	1.0	0.0	False
782.04	0.0	0Suff NW	4	782040	cuppom	0.0	1.0	False
783.257	0.0	0Suff NW	4	783257	eschess	0.0	1.0	False
784.307	0.0	2Suff Composite	23	784307	hierarchical	1.0	0.0	False
785.524	0.0	2Suff w/o Lat.	22	785524	assertiveness	1.0	0.0	False
786.783	0.0	0Suff NW	4	786783	precuke	0.0	1.0	False
788.2	0.0	2Suff w/o Lat.	22	788200	culturally	1.0	0.0	False
789.667	0.0	1Suff RealStemNW	15	789667	careable	0.0	0.0	True
791.134	0.0	1Suff w/o Lat.	12	791134	tactical	1.0	0.0	False
792.26	0.0	1Suff w/o Lat.	12	792260	causal	1.0	0.0	False
793.21	0.0	2Suff PseudoStemNW	24	793210	conspodively	0.0	1.0	False
794.635	0.0	1Suff w/o Lat.	12	794635	passionate	1.0	0.0	False
795.702	0.0	1Suff RealStemNW	15	795702	mournive	0.0	1.0	False
796.969	0.0	2Suff RealStemNW	25	796969	voyeurional	0.0	1.0	False
798.078	0.0	1Suff w/o Lat.	12	798078	joyful	1.0	0.0	False
827.254	0.0	1Suff RealStemNW	15	827254	classal	0.0	1.0	False
828.254	0.0	1Suff w/o Lat.	12	828254	tireless	1.0	0.0	False
829.671	0.0	1Suff w/o Lat.	12	829671	national	1.0	0.0	False
830.771	0.0	2Suff PseudoStemNW	24	830771	selvation	0.0	1.0	False
831.905	0.0	0Suff w/o Lat.	2	831905	style	1.0	0.0	False
832.855	0.0	0Suff NW	4	832855	selp	0.0	1.0	False
834.139	0.0	2Suff Composite	23	834139	altercation	1.0	1.0	True
835.139	0.0	0Suff NW	4	835139	pums	0.0	1.0	False
836.115	0.0	0Suff w/ Lat.	1	836115	exclude	1.0	0.0	False
837.032	0.0	2Suff Composite	23	837032	vulgarization	1.0	0.0	False
838.215	0.0	1Suff RealStemNW	15	838215	conductful	0.0	1.0	False
839.391	0.0	0Suff NW	4	839391	bruke	0.0	1.0	False
840.449	0.0	2Suff RealStemNW	25	840449	criticical	0.0	0.0	True
841.491	0.0	2Suff Composite	23	841491	computation	1.0	0.0	False
842.742	0.0	2Suff w/o Lat.	22	842742	optically	1.0	0.0	False
843.834	0.0	0Suff NW	4	843834	traphet	0.0	1.0	False
844.992	0.0	2Suff RealStemNW	25	844992	magicical	0.0	1.0	False
846.41	0.0	0Suff NW	4	846410	ceant	0.0	1.0	False
847.493	0.0	1Suff RealStemNW	15	847493	confidious	0.0	1.0	False
848.819	0.0	1Suff PseudoStemNW	14	848819	ewilsence	0.0	1.0	False
849.794	0.0	2Suff w/o Lat.	22	849794	slippery	1.0	0.0	False
850.869	0.0	2Suff PseudoStemNW	24	850869	comburation	0.0	1.0	False
852.028	0.0	0Suff NW	4	852028	copperce	0.0	1.0	False
853.103	0.0	0Suff NW	4	853103	luds	0.0	1.0	False
854.095	0.0	1Suff RealStemNW	15	854095	causic	0.0	1.0	False
855.037	0.0	2Suff RealStemNW	25	855037	useiveness	0.0	1.0	False
856.238	0.0	0Suff w/o Lat.	2	856238	need	1.0	0.0	False
857.546	0.0	1Suff PseudoStemNW	14	857546	flivitual	0.0	1.0	False
858.605	0.0	2Suff RealStemNW	25	858605	explosfully	0.0	1.0	False
860.564	0.0	2Suff w/o Lat.	22	860564	variability	1.0	1.0	True
861.739	0.0	1Suff w/o Lat.	12	861739	optical	1.0	1.0	True
863.081	0.0	2Suff w/o Lat.	22	863081	expansiveness	1.0	0.0	False
864.398	0.0	0Suff NW	4	864398	assork	0.0	1.0	False
865.482	0.0	1Suff w/o Lat.	12	865482	breathless	1.0	0.0	False
867.033	0.0	1Suff w/o Lat.	12	867033	momentary	1.0	1.0	True
868.491	0.0	2Suff RealStemNW	25	868491	fertilability	0.0	1.0	False
870.459	0.0	0Suff w/o Lat.	2	870459	mercy	1.0	0.0	False
871.426	0.0	0Suff NW	4	871426	gried	0.0	1.0	False
872.901	0.0	2Suff PseudoStemNW	24	872901	blunkenness	0.0	1.0	False
874.335	0.0	0Suff w/o Lat.	2	874335	industry	1.0	1.0	True
875.385	0.0	1Suff RealStemNW	15	875385	fortunion	0.0	1.0	False
876.744	0.0	2Suff PseudoStemNW	24	876744	seetably	0.0	1.0	False
877.719	0.0	1Suff w/ Lat.	11	877719	objective	1.0	0.0	False
878.77	0.0	1Suff w/ Lat.	11	878770	composite	1.0	0.0	False
880.012	0.0	2Suff PseudoStemNW	24	880012	onwertionable	0.0	1.0	False
881.312	0.0	2Suff Composite	23	881312	identification	1.0	0.0	False
882.696	0.0	0Suff NW	4	882696	rebuin	0.0	1.0	False
883.913	0.0	1Suff w/ Lat.	11	883913	effective	1.0	0.0	False
885.005	0.0	1Suff w/o Lat.	12	885005	confidence	1.0	0.0	False
885.972	0.0	2Suff w/o Lat.	22	885972	needlessly	1.0	0.0	False
886.989	0.0	2Suff RealStemNW	25	886989	signiousness	0.0	1.0	False
888.239	0.0	1Suff w/ Lat.	11	888239	excessive	1.0	0.0	False
889.306	0.0	2Suff RealStemNW	25	889306	respectfully	0.0	0.0	True
890.256	0.0	2Suff w/o Lat.	22	890256	commercially	1.0	0.0	False
891.198	0.0	2Suff RealStemNW	25	891198	attentfully	0.0	0.0	True
892.115	0.0	2Suff PseudoStemNW	24	892115	flivituality	0.0	1.0	False
893.241	0.0	2Suff w/o Lat.	22	893241	continually	1.0	0.0	False
894.224	0.0	0Suff NW	4	894224	movect	0.0	1.0	False
895.466	0.0	2Suff RealStemNW	25	895466	humanional	0.0	1.0	False
896.983	0.0	0Suff w/ Lat.	1	896983	object	1.0	0.0	False
897.967	0.0	0Suff NW	4	897967	inglinite	0.0	1.0	False
899.017	0.0	0Suff NW	4	899017	pipson	0.0	1.0	False
900.134	0.0	2Suff RealStemNW	25	900134	presumator	0.0	1.0	False
901.618	0.0	2Suff w/ Lat.	21	901618	exclusively	1.0	0.0	False
902.685	0.0	2Suff w/o Lat.	22	902685	helplessness	1.0	0.0	False
903.677	0.0	1Suff PseudoStemNW	14	903677	esressive	0.0	1.0	False
904.711	0.0	2Suff w/o Lat.	22	904711	vaccination	1.0	0.0	False
905.803	0.0	1Suff w/o Lat.	12	905803	lovely	1.0	0.0	False
906.778	0.0	1Suff PseudoStemNW	14	906778	expredive	0.0	1.0	False
907.903	0.0	1Suff w/o Lat.	12	907903	preferable	1.0	0.0	False
909.421	0.0	0Suff NW	4	909421	lond	0.0	1.0	False
910.571	0.0	2Suff PseudoStemNW	24	910571	kibsliness	0.0	1.0	False
911.721	0.0	2Suff w/o Lat.	22	911721	brutality	1.0	0.0	False
912.847	0.0	2Suff RealStemNW	25	912847	whimsally	0.0		False
915.231	0.0	1Suff w/o Lat.	12	915231	continual	1.0	0.0	False
916.656	0.0	0Suff NW	4	916656	onnend	0.0	1.0	False
917.815	0.0	0Suff w/o Lat.	2	917815	critic	1.0	0.0	False
918.982	0.0	2Suff w/o Lat.	22	918982	artistic	1.0	0.0	False
919.991	0.0	1Suff PseudoStemNW	14	919991	jokful	0.0	1.0	False
921.133	0.0	1Suff RealStemNW	15	921133	foolory	0.0	1.0	False
922.366	0.0	1Suff PseudoStemNW	14	922366	ceantless	0.0	0.0	True
923.658	0.0	2Suff w/o Lat.	22	923658	herbalist	1.0	1.0	True
925.134	0.0	1Suff PseudoStemNW	14	925134	eschession	0.0	1.0	False
926.234	0.0	2Suff PseudoStemNW	24	926234	sarumentally	0.0	1.0	False
928.01	0.0	0Suff NW	4	928010	conwode	0.0	1.0	False
929.077	0.0	1Suff RealStemNW	15	929077	exceptate	0.0	1.0	False
930.61	0.0	1Suff RealStemNW	15	930610	passionion	0.0	1.0	False
931.844	0.0	2Suff w/o Lat.	22	931844	lustily	1.0	1.0	True
933.228	0.0	1Suff PseudoStemNW	14	933228	selvible	0.0	1.0	False
934.27	0.0	2Suff RealStemNW	25	934270	prophetionist	0.0	1.0	False
935.654	0.0	1Suff RealStemNW	15	935654	collectful	0.0	1.0	False
936.937	0.0	2Suff RealStemNW	25	936937	hierarchally	0.0	0.0	True
938.088	0.0	0Suff w/o Lat.	2	938088	master	1.0	0.0	False
939.522	0.0	2Suff w/o Lat.	22	939522	drunkenly	1.0	0.0	False
940.997	0.0	0Suff NW	4	940997	omlic	0.0	1.0	False
941.989	0.0	2Suff PseudoStemNW	24	941989	tistlessly	0.0	1.0	False
943.164	0.0	0Suff NW	4	943164	nolave	0.0	1.0	False
944.198	0.0	2Suff w/o Lat.	22	944198	critically	1.0	0.0	False
945.473	0.0	0Suff NW	4	945473	comfern	0.0	1.0	False
946.624	0.0	2Suff PseudoStemNW	24	946624	herfalist	0.0	1.0	False
948.166	0.0	2Suff RealStemNW	25	948166	civilability	0.0	1.0	False
950.45	0.0	0Suff w/o Lat.	2	950450	slip	1.0	0.0	False
951.417	0.0	2Suff w/o Lat.	22	951417	significant	1.0	0.0	False
952.459	0.0	2Suff w/o Lat.	22	952459	foolishness	1.0	0.0	False
953.451	0.0	2Suff PseudoStemNW	24	953451	coyimally	0.0	1.0	False
954.468	0.0	0Suff w/o Lat.	2	954468	optic	1.0	0.0	False
955.576	0.0	2Suff PseudoStemNW	24	955576	fortorately	0.0	1.0	False
956.669	0.0	2Suff w/o Lat.	22	956669	comparatively	1.0	0.0	False
957.694	0.0	0Suff w/o Lat.	2	957694	fertile	1.0	0.0	False
958.819	0.0	1Suff w/o Lat.	12	958819	humanist	1.0	0.0	False
959.769	0.0	1Suff PseudoStemNW	14	959769	mocondary	0.0	1.0	False
961.062	0.0	2Suff PseudoStemNW	24	961062	griedily	0.0	1.0	False
962.304	0.0	2Suff Composite	23	962304	quizzical	1.0	0.0	False
963.379	0.0	0Suff w/o Lat.	2	963379	abolish	1.0	0.0	False
964.354	0.0	1Suff w/o Lat.	12	964354	truthful	1.0	0.0	False
965.338	0.0	0Suff NW	4	965338	podent	0.0	1.0	False
966.68	0.0	1Suff PseudoStemNW	14	966680	movectize	0.0	1.0	False
967.972	0.0	1Suff PseudoStemNW	14	967972	crerical	0.0	1.0	False
969.014	0.0	2Suff w/o Lat.	22	969014	selfishness	1.0	0.0	False
1003.049	0.0	0Suff NW	4	1003049	effern	0.0	1.0	False
1004.033	0.0	2Suff PseudoStemNW	24	1004033	hettlessness	0.0	1.0	False
1005.417	0.0	2Suff PseudoStemNW	24	1005417	retendlessly	0.0	1.0	False
1006.892	0.0	0Suff NW	4	1006892	jist	0.0	1.0	False
1007.884	0.0	0Suff w/o Lat.	2	1007884	herb	1.0	0.0	False
1008.81	0.0	2Suff w/o Lat.	22	1008810	brutalize	1.0	0.0	False
1009.985	0.0	0Suff NW	4	1009985	cheher	0.0	1.0	False
1010.977	0.0	0Suff w/o Lat.	2	1010977	human	1.0	0.0	False
1011.936	0.0	2Suff w/o Lat.	22	1011936	excellently	1.0	0.0	False
1012.911	0.0	0Suff NW	4	1012911	brole	0.0	1.0	False
1013.944	0.0	1Suff w/o Lat.	12	1013944	artful	1.0	0.0	False
1015.387	0.0	0Suff NW	4	1015387	coyim	0.0	1.0	False
1016.395	0.0	2Suff w/o Lat.	22	1016395	dangerously	1.0	0.0	False
1017.371	0.0	1Suff RealStemNW	15	1017371	abolitate	0.0	1.0	False
1018.996	0.0	2Suff w/o Lat.	22	1018996	powerfully	1.0	0.0	False
1019.955	0.0	1Suff w/o Lat.	12	1019955	feverish	1.0	0.0	False
1020.98	0.0	2Suff w/o Lat.	22	1020980	commercialize	1.0	0.0	False
1022.13	0.0	0Suff NW	4	1022130	exfapt	0.0	1.0	False
1023.231	0.0	2Suff PseudoStemNW	24	1023231	rincheousness	0.0	1.0	False
1024.773	0.0	1Suff RealStemNW	15	1024773	traditionic	0.0	1.0	False
1026.048	0.0	2Suff PseudoStemNW	24	1026048	pipsonalize	0.0	1.0	False
1027.115	0.0	1Suff w/o Lat.	12	1027115	foolish	1.0	0.0	False
1028.124	0.0	2Suff RealStemNW	25	1028124	assertishness	0.0	0.0	True
1029.699	0.0	0Suff w/o Lat.	2	1029699	effort	1.0	0.0	False
1030.583	0.0	0Suff NW	4	1030583	creric	0.0	1.0	False
1031.658	0.0	2Suff RealStemNW	25	1031658	effortiously	0.0	1.0	False
1032.934	0.0	1Suff w/ Lat.	11	1032934	exception	1.0	0.0	False
1033.892	0.0	2Suff w/o Lat.	22	1033892	variously	1.0	0.0	False
1035.176	0.0	2Suff w/o Lat.	22	1035176	sharpener	1.0	0.0	False
1036.235	0.0	0Suff NW	4	1036235	vetcine	0.0	1.0	False
1037.302	0.0	1Suff w/ Lat.	11	1037302	intention	1.0	0.0	False
1038.285	0.0	1Suff RealStemNW	15	1038285	drunkor	0.0	1.0	False
1039.377	0.0	1Suff w/o Lat.	12	1039377	computer	1.0	0.0	False
1040.336	0.0	1Suff PseudoStemNW	14	1040336	coatageous	0.0	1.0	False
1041.561	0.0	2Suff PseudoStemNW	24	1041561	janiability	0.0	1.0	False
1042.762	0.0	0Suff NW	4	1042762	combore	0.0	1.0	False
1043.779	0.0	2Suff Composite	23	1043779	solipsistic	1.0	1.0	True
1044.896	0.0	0Suff NW	4	1044896	sarument	0.0	1.0	False
1046.004	0.0	1Suff RealStemNW	15	1046004	conclusful	0.0	1.0	False
1047.705	0.0	1Suff RealStemNW	15	1047705	slippor	0.0	1.0	False
1048.805	0.0	0Suff NW	4	1048805	haint	0.0	1.0	False
1049.822	0.0	2Suff w/o Lat.	22	1049822	ownership	1.0	0.0	False
1050.872	0.0	2Suff w/o Lat.	22	1050872	ceaselessly	1.0	0.0	False
1052.29	0.0	0Suff NW	4	1052290	adnise	0.0	1.0	False
1053.932	0.0	0Suff NW	4	1053932	excrode	0.0	1.0	False
1054.949	0.0	0Suff w/o Lat.	2	1054949	module	1.0	0.0	False
1055.916	0.0	0Suff w/o Lat.	2	1055916	attend	1.0	0.0	False
1056.858	0.0	1Suff RealStemNW	15	1056858	humanify	0.0	0.0	True
1058.1	0.0	0Suff NW	4	1058100	shact	0.0	1.0	False
1059.275	0.0	2Suff w/o Lat.	22	1059275	methodically	1.0	1.0	True
1060.442	0.0	2Suff PseudoStemNW	24	1060442	pipsonality	0.0	1.0	False
1061.459	0.0	2Suff w/o Lat.	22	1061459	significance	1.0	0.0	False
1062.601	0.0	0Suff NW	4	1062601	loke	0.0	1.0	False
1063.618	0.0	2Suff RealStemNW	25	1063618	drunkoral	0.0	1.0	False
1064.827	0.0	2Suff w/o Lat.	22	1064827	fortunately	1.0	0.0	False
1065.744	0.0	2Suff PseudoStemNW	24	1065744	sothodically	0.0	1.0	False
1066.786	0.0	2Suff RealStemNW	25	1066786	quizzally	0.0	0.0	True
1067.786	0.0	2Suff PseudoStemNW	24	1067786	foffification	0.0	1.0	False
1068.986	0.0	1Suff PseudoStemNW	14	1068986	booftiful	0.0	1.0	False
1070.729	0.0	0Suff w/o Lat.	2	1070729	nation	1.0	0.0	False
1071.637	0.0	0Suff w/o Lat.	2	1071637	fever	1.0	0.0	False
1072.588	0.0	0Suff w/o Lat.	2	1072588	admire	1.0	0.0	False
1073.504	0.0	2Suff PseudoStemNW	24	1073504	cutfurally	0.0	1.0	False
1075.13	0.0	2Suff RealStemNW	25	1075130	selectfully	0.0	0.0	True
1076.164	0.0	1Suff w/o Lat.	12	1076164	comical	1.0	0.0	False
1077.264	0.0	2Suff PseudoStemNW	24	1077264	cankfully	0.0	1.0	False
1078.381	0.0	2Suff w/ Lat.	21	1078381	presumably	1.0	0.0	False
1079.556	0.0	2Suff RealStemNW	25	1079556	noisery	0.0	1.0	False
1080.707	0.0	0Suff w/o Lat.	2	1080707	beauty	1.0	0.0	False
1082.09	0.0	1Suff PseudoStemNW	14	1082090	mymbolic	0.0	1.0	False
1083.391	0.0	2Suff Composite	23	1083391	paradoxical	1.0	0.0	False
1084.399	0.0	1Suff PseudoStemNW	14	1084399	lokely	0.0	1.0	False
1085.541	0.0	2Suff PseudoStemNW	24	1085541	moolurably	0.0	1.0	False
1087.009	0.0	1Suff PseudoStemNW	14	1087009	selvual	0.0	1.0	False
1088.217	0.0	2Suff RealStemNW	25	1088217	lustery	0.0	0.0	True
1089.393	0.0	2Suff RealStemNW	25	1089393	hastery	0.0	0.0	True
1090.493	0.0	2Suff Composite	23	1090493	synchronization	1.0	0.0	False
1091.468	0.0	2Suff w/o Lat.	22	1091468	tactically	1.0	0.0	False
1092.519	0.0	0Suff NW	4	1092519	conspode	0.0	1.0	False
1093.527	0.0	1Suff w/o Lat.	12	1093527	instinctive	1.0	0.0	False
1094.719	0.0	0Suff w/o Lat.	2	1094719	act	1.0	0.0	False
1095.653	0.0	1Suff w/o Lat.	12	1095653	fertilize	1.0	0.0	False
1096.612	0.0	2Suff RealStemNW	25	1096612	ordinfully	0.0	1.0	False
1097.704	0.0	2Suff PseudoStemNW	24	1097704	efforniveness	0.0	1.0	False
1098.946	0.0	2Suff w/o Lat.	22	1098946	feverishly	1.0	0.0	False
1100.154	0.0	2Suff RealStemNW	25	1100154	brutional	0.0	1.0	False
1102.005	0.0	1Suff PseudoStemNW	14	1102005	awnist	0.0	1.0	False
1103.089	0.0	2Suff RealStemNW	25	1103089	commerceional	0.0	1.0	False
1104.739	0.0	2Suff w/o Lat.	22	1104739	spiritualize	1.0	0.0	False
1105.873	0.0	2Suff PseudoStemNW	24	1105873	comberatively	0.0	1.0	False
1107.698	0.0	0Suff NW	4	1107698	vectue	0.0	1.0	False
1108.782	0.0	0Suff NW	4	1108782	healt	0.0	1.0	False
1109.882	0.0	2Suff PseudoStemNW	24	1109882	ludsily	0.0	1.0	False
1110.933	0.0	0Suff NW	4	1110933	pacic	0.0	1.0	False
1111.95	0.0	2Suff w/o Lat.	22	1111950	activist	1.0	0.0	False
1113.375	0.0	0Suff w/o Lat.	2	1113375	breath	1.0	0.0	False
1114.425	0.0	0Suff NW	4	1114425	boofty	0.0	0.0	True
1116.251	0.0	2Suff w/o Lat.	22	1116251	spiritually	1.0	0.0	False
1117.376	0.0	0Suff NW	4	1117376	abadill	0.0	1.0	False
1118.618	0.0	2Suff PseudoStemNW	24	1118618	cheherably	0.0	1.0	False
1119.752	0.0	2Suff PseudoStemNW	24	1119752	excrodively	0.0	1.0	False
1120.827	0.0	1Suff PseudoStemNW	14	1120827	rinchful	0.0	1.0	False
1121.919	0.0	2Suff PseudoStemNW	24	1121919	grearively	0.0	1.0	False
1122.886	0.0	2Suff Composite	23	1122886	farcical	1.0	0.0	False
1124.353	0.0	2Suff PseudoStemNW	24	1124353	eschessionist	0.0	1.0	False
1125.429	0.0	2Suff w/o Lat.	22	1125429	justifiable	1.0	0.0	False
1127.029	0.0	2Suff PseudoStemNW	24	1127029	contitually	0.0	0.0	True
1128.555	0.0	1Suff RealStemNW	15	1128555	merciable	0.0	1.0	False
1130.014	0.0	1Suff PseudoStemNW	14	1130014	obwertion	0.0	1.0	False
1131.172	0.0	1Suff w/o Lat.	12	1131172	prophetic	1.0	0.0	False
1132.448	0.0	2Suff w/o Lat.	22	1132448	tirelessly	1.0	0.0	False
1134.306	0.0	2Suff w/ Lat.	21	1134306	explosively	1.0	0.0	False
1135.415	0.0	0Suff w/o Lat.	2	1135415	drunk	1.0	0.0	False
1136.382	0.0	0Suff NW	4	1136382	hunen	0.0	1.0	False
1137.441	0.0	2Suff w/o Lat.	22	1137441	monumentally	1.0	0.0	False
1138.766	0.0	1Suff RealStemNW	15	1138766	fruitable	0.0	0.0	True
1140.675	0.0	0Suff NW	4	1140675	hett	0.0	1.0	False
1141.692	0.0	2Suff Composite	23	1141692	identical	1.0	0.0	False
1142.709	0.0	0Suff w/ Lat.	1	1142709	intend	1.0	0.0	False
1146.377	0.0	0Suff NW	4	1146377	mocond	0.0	1.0	False
1147.461	0.0	0Suff w/o Lat.	2	1147461	tire	1.0	0.0	False
1148.636	0.0	0Suff NW	4	1148636	slex	0.0	1.0	False
1149.72	0.0	1Suff PseudoStemNW	14	1149720	janiable	0.0	1.0	False
1150.77	0.0	2Suff PseudoStemNW	24	1150770	perfallionism	0.0	1.0	False
1151.97	0.0	2Suff RealStemNW	25	1151970	fooliveness	0.0	1.0	False
1153.129	0.0	2Suff w/o Lat.	22	1153129	usefulness	1.0	0.0	False
1154.154	0.0	1Suff RealStemNW	15	1154154	flexless	0.0	0.0	True
1155.28	0.0	1Suff PseudoStemNW	14	1155280	coyimal	0.0	1.0	False
1156.463	0.0	1Suff w/o Lat.	12	1156463	signify	1.0	0.0	False
1157.639	0.0	1Suff w/o Lat.	12	1157639	civilize	1.0	0.0	False
1158.764	0.0	1Suff PseudoStemNW	14	1158764	cutfural	0.0	1.0	False
1160.023	0.0	0Suff NW	4	1160023	sothod	0.0	1.0	False
1161.056	0.0	0Suff w/o Lat.	2	1161056	virtue	1.0	0.0	False
1162.098	0.0	0Suff NW	4	1162098	jok	0.0	1.0	False
1163.124	0.0	1Suff w/o Lat.	12	1163124	dangerous	1.0	0.0	False
1164.041	0.0	1Suff w/ Lat.	11	1164041	inspiration	1.0	0.0	False
1165.016	0.0	2Suff Composite	23	1165016	maturation	1.0	0.0	False
1166.108	0.0	2Suff PseudoStemNW	24	1166108	procation	0.0	1.0	False
1167.208	0.0	1Suff PseudoStemNW	14	1167208	hainy	0.0	1.0	False
1168.267	0.0	2Suff w/o Lat.	22	1168267	greedily	1.0	0.0	False
1169.292	0.0	2Suff w/o Lat.	22	1169292	brokerage	1.0	0.0	False
1170.351	0.0	0Suff NW	4	1170351	tedal	0.0	1.0	False
1171.318	0.0	2Suff PseudoStemNW	24	1171318	hettlessly	0.0	1.0	False
1172.443	0.0	2Suff w/o Lat.	22	1172443	fertilization	1.0	0.0	False
1173.502	0.0	2Suff RealStemNW	25	1173502	suitfulness	0.0	1.0	False
1175.302	0.0	2Suff PseudoStemNW	24	1175302	flivitualize	0.0	1.0	False
1176.528	0.0	1Suff PseudoStemNW	14	1176528	sothodical	0.0	1.0	False
1177.511	0.0	0Suff NW	4	1177511	lecer	0.0	1.0	False
1178.503	0.0	2Suff w/o Lat.	22	1178503	regionally	1.0	0.0	False
1179.504	0.0	1Suff w/o Lat.	12	1179504	needless	1.0	0.0	False
1180.396	0.0	1Suff RealStemNW	15	1180396	helpable	0.0	1.0	False
1181.546	0.0	1Suff w/o Lat.	12	1181546	merciful	1.0	0.0	False
1182.58	0.0	2Suff RealStemNW	25	1182580	selfiousness	0.0	0.0	True
1184.013	0.0	1Suff w/o Lat.	12	1184013	lonely	1.0	0.0	False
1184.947	0.0	2Suff w/o Lat.	22	1184947	courageously	1.0	0.0	False
1185.872	0.0	2Suff w/o Lat.	22	1185872	classical	1.0	0.0	False
1186.798	0.0	0Suff w/o Lat.	2	1186798	cause	1.0	0.0	False
1187.715	0.0	2Suff PseudoStemNW	24	1187715	mymbolically	0.0	1.0	False
1188.815	0.0	1Suff w/o Lat.	12	1188815	fearful	1.0	0.0	False
1190.04	0.0	1Suff w/o Lat.	12	1190040	owner	1.0	0.0	False
1190.957	0.0	2Suff w/ Lat.	21	1190957	exceptional	1.0	0.0	False
1191.849	0.0	0Suff w/o Lat.	2	1191849	wonder	1.0	0.0	False
1192.724	0.0	2Suff PseudoStemNW	24	1192724	inglinitional	0.0	1.0	False
1193.825	0.0	2Suff PseudoStemNW	24	1193825	paragewical	0.0	1.0	False
1194.817	0.0	1Suff w/o Lat.	12	1194817	traditional	1.0	0.0	False
1195.7	0.0	1Suff PseudoStemNW	14	1195700	ludsy	0.0	1.0	False
1196.642	0.0	0Suff NW	4	1196642	kibs	0.0	1.0	False
1197.618	0.0	2Suff w/o Lat.	22	1197618	comfortably	1.0	0.0	False
1198.526	0.0	2Suff w/o Lat.	22	1198526	mercilessly	1.0	0.0	False
1199.452	0.0	2Suff PseudoStemNW	24	1199452	colliffively	0.0	1.0	False
1200.544	0.0	0Suff NW	4	1200544	tist	0.0	1.0	False
1201.552	0.0	2Suff PseudoStemNW	24	1201552	gunderfully	0.0	1.0	False
1202.561	0.0	1Suff w/o Lat.	12	1202561	selfless	1.0	0.0	False
1203.836	0.0	1Suff RealStemNW	15	1203836	admirless	0.0	0.0	True
1205.012	0.0	2Suff w/o Lat.	22	1205012	virtuosity	1.0	0.0	False
1206.154	0.0	0Suff w/o Lat.	2	1206154	second	1.0	0.0	False
1207.171	0.0	0Suff w/o Lat.	2	1207171	FALSE	1.0	0.0	False
1208.163	0.0	2Suff PseudoStemNW	24	1208163	sedulation	0.0	1.0	False
1209.33	0.0	2Suff PseudoStemNW	24	1209330	jistifiable	0.0	1.0	False
1210.563	0.0	1Suff RealStemNW	15	1210563	assertful	0.0	0.0	True
1212.339	0.0	1Suff RealStemNW	15	1212339	modernate	0.0	0.0	True
1213.247	0.0	1Suff w/o Lat.	12	1213247	comparative	1.0	0.0	False
1214.198	0.0	0Suff NW	4	1214198	mympol	0.0	1.0	False
1215.173	0.0	1Suff RealStemNW	15	1215173	selectful	0.0	0.0	True
1216.115	0.0	0Suff NW	4	1216115	exprede	0.0	1.0	False
1217.14	0.0	0Suff w/o Lat.	2	1217140	fruit	1.0	0.0	False
1218.074	0.0	2Suff Composite	23	1218074	degradation	1.0	0.0	False
1219.216	0.0	1Suff w/o Lat.	12	1219216	sensible	1.0	0.0	False
1220.4	0.0	2Suff PseudoStemNW	24	1220400	melidification	0.0	1.0	False
1221.483	0.0	2Suff w/o Lat.	22	1221483	justification	1.0	0.0	False
1222.959	0.0	1Suff w/o Lat.	12	1222959	variable	1.0	0.0	False
1224.059	0.0	2Suff RealStemNW	25	1224059	sensfulness	0.0	0.0	True
1225.084	0.0	1Suff RealStemNW	15	1225084	variment	0.0	1.0	False
1226.552	0.0	2Suff w/ Lat.	21	1226552	intentional	1.0	0.0	False
1227.677	0.0	2Suff PseudoStemNW	24	1227677	provacional	0.0	1.0	False
1229.544	0.0	2Suff w/o Lat.	22	1229544	stylistic	1.0	0.0	False
1231.086	0.0	0Suff NW	4	1231086	freat	0.0	1.0	False
1232.153	0.0	2Suff w/o Lat.	22	1232153	dreadfully	1.0	0.0	False
1233.762	0.0	2Suff RealStemNW	25	1233762	tacticical	0.0	1.0	False
1235.604	0.0	2Suff RealStemNW	25	1235604	legalability	0.0	1.0	False
1236.838	0.0	0Suff NW	4	1236838	perfall	0.0	1.0	False
1238.822	0.0	2Suff PseudoStemNW	24	1238822	hettfully	0.0	1.0	False
1239.864	0.0	1Suff RealStemNW	15	1239864	victimist	0.0	1.0	False
1241.873	0.0	0Suff NW	4	1241873	prosood	0.0	1.0	False
1242.898	0.0	1Suff w/ Lat.	11	1242898	provision	1.0	0.0	False
1243.89	0.0	0Suff NW	4	1243890	styke	0.0	1.0	False
1244.891	0.0	0Suff w/ Lat.	1	1244891	inspire	1.0	0.0	False
1245.849	0.0	1Suff w/o Lat.	12	1245849	noisy	1.0	0.0	False
1246.841	0.0	1Suff w/o Lat.	12	1246841	courageous	1.0	0.0	False
1247.85	0.0	2Suff PseudoStemNW	24	1247850	jistification	0.0	1.0	False
1249.35	0.0	2Suff RealStemNW	25	1249350	careiousness	0.0	1.0	False
1250.467	0.0	2Suff w/o Lat.	22	1250467	mercifully	1.0	0.0	False
1251.901	0.0	0Suff NW	4	1251901	connurt	0.0	1.0	False
1253.401	0.0	1Suff RealStemNW	15	1253401	fertilist	0.0	0.0	True
1254.552	0.0	0Suff NW	4	1254552	blead	0.0	1.0	False
1255.694	0.0	2Suff w/ Lat.	21	1255694	perfectionist	1.0	0.0	False
1256.727	0.0	1Suff RealStemNW	15	1256727	justant	0.0	1.0	False
1257.744	0.0	0Suff w/o Lat.	2	1257744	create	1.0	0.0	False
1258.753	0.0	0Suff NW	4	1258753	murpy	0.0	1.0	False
1260.154	0.0	1Suff PseudoStemNW	14	1260154	exfallent	0.0	1.0	False
1261.421	0.0	2Suff w/o Lat.	22	1261421	righteousness	1.0	0.0	False
1262.513	0.0	0Suff NW	4	1262513	elpard	0.0	1.0	False
1263.613	0.0	2Suff RealStemNW	25	1263613	embarkfully	0.0	0.0	True
1265.338	0.0	0Suff NW	4	1265338	cutfure	0.0	1.0	False
1266.439	0.0	2Suff RealStemNW	25	1266439	ceaseiously	0.0	1.0	False
1267.581	0.0	2Suff PseudoStemNW	24	1267581	cladsification	0.0	1.0	False
1269.665	0.0	2Suff PseudoStemNW	24	1269665	prosodural	0.0	1.0	False
1270.765	0.0	1Suff w/o Lat.	12	1270765	beautiful	1.0	0.0	False
1272.016	0.0	2Suff RealStemNW	25	1272016	nullifilessly	0.0	1.0	False
1273.549	0.0	1Suff RealStemNW	15	1273549	institutate	0.0	1.0	False
